#
# Results on Sat, 23 Nov 2024 19:35:17 GMT
# USER AGENT: Mozilla/5.0 (Windows NT 10.0; Win64; x64) AppleWebKit/537.36 (KHTML, like Gecko) Chrome/131.0.0.0 Safari/537.36
# Design number was non-random = 3
#
# Columns below this comment are as follows:
# 1. Results reception time.
# 2. MD5 hash of participant's IP address.
# 3. Controller name.
# 4. Order number of item.
# 5. Inner element number.
# 6. Label.
# 7. Latin Square Group.
# 8. PennElementType.
# 9. PennElementName.
# 10. Parameter.
# 11. Value.
# 12. EventTime.
# 13. PROLIFIC_ID.
# 14. Comments.
1732390517,70f5ef079b0b2a6217371d341304f703,PennController,2,0,consent,NULL,PennController,0,_Trial_,Start,1732390431784,62b20662ca9e4e8378d8d7a3,NULL
1732390517,70f5ef079b0b2a6217371d341304f703,PennController,2,0,consent,NULL,PennController,0,_Header_,Start,1732390431784,62b20662ca9e4e8378d8d7a3,NULL
1732390517,70f5ef079b0b2a6217371d341304f703,PennController,2,0,consent,NULL,PennController,0,_Header_,End,1732390431784,62b20662ca9e4e8378d8d7a3,NULL
1732390517,70f5ef079b0b2a6217371d341304f703,PennController,2,0,consent,NULL,PennController,0,_Trial_,End,1732390444668,62b20662ca9e4e8378d8d7a3,NULL
1732390517,70f5ef079b0b2a6217371d341304f703,PennController,3,0,instructions,NULL,PennController,1,_Trial_,Start,1732390444670,62b20662ca9e4e8378d8d7a3,NULL
1732390517,70f5ef079b0b2a6217371d341304f703,PennController,3,0,instructions,NULL,PennController,1,_Header_,Start,1732390444670,62b20662ca9e4e8378d8d7a3,NULL
1732390517,70f5ef079b0b2a6217371d341304f703,PennController,3,0,instructions,NULL,PennController,1,_Header_,End,1732390444670,62b20662ca9e4e8378d8d7a3,NULL
1732390517,70f5ef079b0b2a6217371d341304f703,PennController,3,0,instructions,NULL,Scale,scale,Choice,6,1732390462794,62b20662ca9e4e8378d8d7a3,NULL
1732390517,70f5ef079b0b2a6217371d341304f703,PennController,3,0,instructions,NULL,PennController,1,_Trial_,End,1732390464222,62b20662ca9e4e8378d8d7a3,NULL
1732390517,70f5ef079b0b2a6217371d341304f703,PennController,4,0,exp-start,NULL,PennController,2,_Trial_,Start,1732390464224,62b20662ca9e4e8378d8d7a3,NULL
1732390517,70f5ef079b0b2a6217371d341304f703,PennController,4,0,exp-start,NULL,PennController,2,_Header_,Start,1732390464224,62b20662ca9e4e8378d8d7a3,NULL
1732390517,70f5ef079b0b2a6217371d341304f703,PennController,4,0,exp-start,NULL,PennController,2,_Header_,End,1732390464224,62b20662ca9e4e8378d8d7a3,NULL
1732390517,70f5ef079b0b2a6217371d341304f703,PennController,4,0,exp-start,NULL,PennController,2,_Trial_,End,1732390466109,62b20662ca9e4e8378d8d7a3,NULL
# 14. Item.
# 15. Noun_TR.
# 16. Noun_EN.
# 17. Category_TR.
# 18. Category_EN.
# 19. Image1.
# 20. Group.
# 21. Condition.
# 22. Comments.
1732390517,70f5ef079b0b2a6217371d341304f703,PennController,20,0,ratings,NULL,PennController,19,_Trial_,Start,1732390466111,62b20662ca9e4e8378d8d7a3,16, at,horse, hayvan,animals,horse1.jpeg,B,1,NULL
1732390517,70f5ef079b0b2a6217371d341304f703,PennController,20,0,ratings,NULL,PennController,19,_Header_,Start,1732390466111,62b20662ca9e4e8378d8d7a3,16, at,horse, hayvan,animals,horse1.jpeg,B,1,NULL
1732390517,70f5ef079b0b2a6217371d341304f703,PennController,20,0,ratings,NULL,PennController,19,_Header_,End,1732390466111,62b20662ca9e4e8378d8d7a3,16, at,horse, hayvan,animals,horse1.jpeg,B,1,NULL
1732390517,70f5ef079b0b2a6217371d341304f703,PennController,20,0,ratings,NULL,Scale,scale,Choice,7,1732390468603,62b20662ca9e4e8378d8d7a3,16, at,horse, hayvan,animals,horse1.jpeg,B,1,NULL
1732390517,70f5ef079b0b2a6217371d341304f703,PennController,20,0,ratings,NULL,PennController,19,_Trial_,End,1732390469311,62b20662ca9e4e8378d8d7a3,16, at,horse, hayvan,animals,horse1.jpeg,B,1,NULL
1732390517,70f5ef079b0b2a6217371d341304f703,PennController,8,0,ratings,NULL,PennController,7,_Trial_,Start,1732390469312,62b20662ca9e4e8378d8d7a3,4, araba,car, araç,vehicles,car1.jpeg,B,1,NULL
1732390517,70f5ef079b0b2a6217371d341304f703,PennController,8,0,ratings,NULL,PennController,7,_Header_,Start,1732390469312,62b20662ca9e4e8378d8d7a3,4, araba,car, araç,vehicles,car1.jpeg,B,1,NULL
1732390517,70f5ef079b0b2a6217371d341304f703,PennController,8,0,ratings,NULL,PennController,7,_Header_,End,1732390469312,62b20662ca9e4e8378d8d7a3,4, araba,car, araç,vehicles,car1.jpeg,B,1,NULL
1732390517,70f5ef079b0b2a6217371d341304f703,PennController,8,0,ratings,NULL,Scale,scale,Choice,6,1732390473708,62b20662ca9e4e8378d8d7a3,4, araba,car, araç,vehicles,car1.jpeg,B,1,NULL
1732390517,70f5ef079b0b2a6217371d341304f703,PennController,8,0,ratings,NULL,PennController,7,_Trial_,End,1732390474413,62b20662ca9e4e8378d8d7a3,4, araba,car, araç,vehicles,car1.jpeg,B,1,NULL
1732390517,70f5ef079b0b2a6217371d341304f703,PennController,12,0,ratings,NULL,PennController,11,_Trial_,Start,1732390474414,62b20662ca9e4e8378d8d7a3,8, ayakkabı,shoe, giysi,clothes,shoe1.jpeg,B,1,NULL
1732390517,70f5ef079b0b2a6217371d341304f703,PennController,12,0,ratings,NULL,PennController,11,_Header_,Start,1732390474414,62b20662ca9e4e8378d8d7a3,8, ayakkabı,shoe, giysi,clothes,shoe1.jpeg,B,1,NULL
1732390517,70f5ef079b0b2a6217371d341304f703,PennController,12,0,ratings,NULL,PennController,11,_Header_,End,1732390474414,62b20662ca9e4e8378d8d7a3,8, ayakkabı,shoe, giysi,clothes,shoe1.jpeg,B,1,NULL
1732390517,70f5ef079b0b2a6217371d341304f703,PennController,12,0,ratings,NULL,Scale,scale,Choice,6,1732390476750,62b20662ca9e4e8378d8d7a3,8, ayakkabı,shoe, giysi,clothes,shoe1.jpeg,B,1,NULL
1732390517,70f5ef079b0b2a6217371d341304f703,PennController,12,0,ratings,NULL,PennController,11,_Trial_,End,1732390477454,62b20662ca9e4e8378d8d7a3,8, ayakkabı,shoe, giysi,clothes,shoe1.jpeg,B,1,NULL
1732390517,70f5ef079b0b2a6217371d341304f703,PennController,17,0,ratings,NULL,PennController,16,_Trial_,Start,1732390477455,62b20662ca9e4e8378d8d7a3,13, kuş,bird, hayvan,animals,bird2.jpeg,B,2,NULL
1732390517,70f5ef079b0b2a6217371d341304f703,PennController,17,0,ratings,NULL,PennController,16,_Header_,Start,1732390477455,62b20662ca9e4e8378d8d7a3,13, kuş,bird, hayvan,animals,bird2.jpeg,B,2,NULL
1732390517,70f5ef079b0b2a6217371d341304f703,PennController,17,0,ratings,NULL,PennController,16,_Header_,End,1732390477455,62b20662ca9e4e8378d8d7a3,13, kuş,bird, hayvan,animals,bird2.jpeg,B,2,NULL
1732390517,70f5ef079b0b2a6217371d341304f703,PennController,17,0,ratings,NULL,Scale,scale,Choice,2,1732390479223,62b20662ca9e4e8378d8d7a3,13, kuş,bird, hayvan,animals,bird2.jpeg,B,2,NULL
1732390517,70f5ef079b0b2a6217371d341304f703,PennController,17,0,ratings,NULL,PennController,16,_Trial_,End,1732390479932,62b20662ca9e4e8378d8d7a3,13, kuş,bird, hayvan,animals,bird2.jpeg,B,2,NULL
1732390517,70f5ef079b0b2a6217371d341304f703,PennController,7,0,ratings,NULL,PennController,6,_Trial_,Start,1732390479933,62b20662ca9e4e8378d8d7a3,3, ekmek,bread, unlu mamül,baked goods,bread2.jpeg,B,2,NULL
1732390517,70f5ef079b0b2a6217371d341304f703,PennController,7,0,ratings,NULL,PennController,6,_Header_,Start,1732390479933,62b20662ca9e4e8378d8d7a3,3, ekmek,bread, unlu mamül,baked goods,bread2.jpeg,B,2,NULL
1732390517,70f5ef079b0b2a6217371d341304f703,PennController,7,0,ratings,NULL,PennController,6,_Header_,End,1732390479933,62b20662ca9e4e8378d8d7a3,3, ekmek,bread, unlu mamül,baked goods,bread2.jpeg,B,2,NULL
1732390517,70f5ef079b0b2a6217371d341304f703,PennController,7,0,ratings,NULL,Scale,scale,Choice,3,1732390482838,62b20662ca9e4e8378d8d7a3,3, ekmek,bread, unlu mamül,baked goods,bread2.jpeg,B,2,NULL
1732390517,70f5ef079b0b2a6217371d341304f703,PennController,7,0,ratings,NULL,PennController,6,_Trial_,End,1732390483545,62b20662ca9e4e8378d8d7a3,3, ekmek,bread, unlu mamül,baked goods,bread2.jpeg,B,2,NULL
1732390517,70f5ef079b0b2a6217371d341304f703,PennController,18,0,ratings,NULL,PennController,17,_Trial_,Start,1732390483546,62b20662ca9e4e8378d8d7a3,14, köpek,dog, hayvan,animals,dog1.jpeg,B,1,NULL
1732390517,70f5ef079b0b2a6217371d341304f703,PennController,18,0,ratings,NULL,PennController,17,_Header_,Start,1732390483546,62b20662ca9e4e8378d8d7a3,14, köpek,dog, hayvan,animals,dog1.jpeg,B,1,NULL
1732390517,70f5ef079b0b2a6217371d341304f703,PennController,18,0,ratings,NULL,PennController,17,_Header_,End,1732390483546,62b20662ca9e4e8378d8d7a3,14, köpek,dog, hayvan,animals,dog1.jpeg,B,1,NULL
1732390517,70f5ef079b0b2a6217371d341304f703,PennController,18,0,ratings,NULL,Scale,scale,Choice,6,1732390485599,62b20662ca9e4e8378d8d7a3,14, köpek,dog, hayvan,animals,dog1.jpeg,B,1,NULL
1732390517,70f5ef079b0b2a6217371d341304f703,PennController,18,0,ratings,NULL,PennController,17,_Trial_,End,1732390486308,62b20662ca9e4e8378d8d7a3,14, köpek,dog, hayvan,animals,dog1.jpeg,B,1,NULL
1732390517,70f5ef079b0b2a6217371d341304f703,PennController,11,0,ratings,NULL,PennController,10,_Trial_,Start,1732390486308,62b20662ca9e4e8378d8d7a3,7, palto,coat, giysi,clothes,coat2.jpeg,B,2,NULL
1732390517,70f5ef079b0b2a6217371d341304f703,PennController,11,0,ratings,NULL,PennController,10,_Header_,Start,1732390486308,62b20662ca9e4e8378d8d7a3,7, palto,coat, giysi,clothes,coat2.jpeg,B,2,NULL
1732390517,70f5ef079b0b2a6217371d341304f703,PennController,11,0,ratings,NULL,PennController,10,_Header_,End,1732390486308,62b20662ca9e4e8378d8d7a3,7, palto,coat, giysi,clothes,coat2.jpeg,B,2,NULL
1732390517,70f5ef079b0b2a6217371d341304f703,PennController,11,0,ratings,NULL,Scale,scale,Choice,6,1732390489320,62b20662ca9e4e8378d8d7a3,7, palto,coat, giysi,clothes,coat2.jpeg,B,2,NULL
1732390517,70f5ef079b0b2a6217371d341304f703,PennController,11,0,ratings,NULL,PennController,10,_Trial_,End,1732390490029,62b20662ca9e4e8378d8d7a3,7, palto,coat, giysi,clothes,coat2.jpeg,B,2,NULL
1732390517,70f5ef079b0b2a6217371d341304f703,PennController,13,0,ratings,NULL,PennController,12,_Trial_,Start,1732390490029,62b20662ca9e4e8378d8d7a3,9, şapka,hat, giysi,clothes,hat2.jpeg,B,2,NULL
1732390517,70f5ef079b0b2a6217371d341304f703,PennController,13,0,ratings,NULL,PennController,12,_Header_,Start,1732390490029,62b20662ca9e4e8378d8d7a3,9, şapka,hat, giysi,clothes,hat2.jpeg,B,2,NULL
1732390517,70f5ef079b0b2a6217371d341304f703,PennController,13,0,ratings,NULL,PennController,12,_Header_,End,1732390490029,62b20662ca9e4e8378d8d7a3,9, şapka,hat, giysi,clothes,hat2.jpeg,B,2,NULL
1732390517,70f5ef079b0b2a6217371d341304f703,PennController,13,0,ratings,NULL,Scale,scale,Choice,2,1732390492775,62b20662ca9e4e8378d8d7a3,9, şapka,hat, giysi,clothes,hat2.jpeg,B,2,NULL
1732390517,70f5ef079b0b2a6217371d341304f703,PennController,13,0,ratings,NULL,PennController,12,_Trial_,End,1732390493483,62b20662ca9e4e8378d8d7a3,9, şapka,hat, giysi,clothes,hat2.jpeg,B,2,NULL
1732390517,70f5ef079b0b2a6217371d341304f703,PennController,9,0,ratings,NULL,PennController,8,_Trial_,Start,1732390493484,62b20662ca9e4e8378d8d7a3,5, kamyon,truck, araç,vehicles,truck2.jpeg,B,2,NULL
1732390517,70f5ef079b0b2a6217371d341304f703,PennController,9,0,ratings,NULL,PennController,8,_Header_,Start,1732390493484,62b20662ca9e4e8378d8d7a3,5, kamyon,truck, araç,vehicles,truck2.jpeg,B,2,NULL
1732390517,70f5ef079b0b2a6217371d341304f703,PennController,9,0,ratings,NULL,PennController,8,_Header_,End,1732390493484,62b20662ca9e4e8378d8d7a3,5, kamyon,truck, araç,vehicles,truck2.jpeg,B,2,NULL
1732390517,70f5ef079b0b2a6217371d341304f703,PennController,9,0,ratings,NULL,Scale,scale,Choice,1,1732390495426,62b20662ca9e4e8378d8d7a3,5, kamyon,truck, araç,vehicles,truck2.jpeg,B,2,NULL
1732390517,70f5ef079b0b2a6217371d341304f703,PennController,9,0,ratings,NULL,PennController,8,_Trial_,End,1732390496136,62b20662ca9e4e8378d8d7a3,5, kamyon,truck, araç,vehicles,truck2.jpeg,B,2,NULL
1732390517,70f5ef079b0b2a6217371d341304f703,PennController,5,0,ratings,NULL,PennController,4,_Trial_,Start,1732390496137,62b20662ca9e4e8378d8d7a3,1, kek,cake, unlu mamül,baked goods,cake2.jpeg,B,2,NULL
1732390517,70f5ef079b0b2a6217371d341304f703,PennController,5,0,ratings,NULL,PennController,4,_Header_,Start,1732390496137,62b20662ca9e4e8378d8d7a3,1, kek,cake, unlu mamül,baked goods,cake2.jpeg,B,2,NULL
1732390517,70f5ef079b0b2a6217371d341304f703,PennController,5,0,ratings,NULL,PennController,4,_Header_,End,1732390496138,62b20662ca9e4e8378d8d7a3,1, kek,cake, unlu mamül,baked goods,cake2.jpeg,B,2,NULL
1732390517,70f5ef079b0b2a6217371d341304f703,PennController,5,0,ratings,NULL,Scale,scale,Choice,1,1732390497963,62b20662ca9e4e8378d8d7a3,1, kek,cake, unlu mamül,baked goods,cake2.jpeg,B,2,NULL
1732390517,70f5ef079b0b2a6217371d341304f703,PennController,5,0,ratings,NULL,PennController,4,_Trial_,End,1732390498668,62b20662ca9e4e8378d8d7a3,1, kek,cake, unlu mamül,baked goods,cake2.jpeg,B,2,NULL
1732390517,70f5ef079b0b2a6217371d341304f703,PennController,10,0,ratings,NULL,PennController,9,_Trial_,Start,1732390498669,62b20662ca9e4e8378d8d7a3,6, otobüs,bus, araç,vehicles,bus1.jpeg,B,1,NULL
1732390517,70f5ef079b0b2a6217371d341304f703,PennController,10,0,ratings,NULL,PennController,9,_Header_,Start,1732390498669,62b20662ca9e4e8378d8d7a3,6, otobüs,bus, araç,vehicles,bus1.jpeg,B,1,NULL
1732390517,70f5ef079b0b2a6217371d341304f703,PennController,10,0,ratings,NULL,PennController,9,_Header_,End,1732390498669,62b20662ca9e4e8378d8d7a3,6, otobüs,bus, araç,vehicles,bus1.jpeg,B,1,NULL
1732390517,70f5ef079b0b2a6217371d341304f703,PennController,10,0,ratings,NULL,Scale,scale,Choice,5,1732390501346,62b20662ca9e4e8378d8d7a3,6, otobüs,bus, araç,vehicles,bus1.jpeg,B,1,NULL
1732390517,70f5ef079b0b2a6217371d341304f703,PennController,10,0,ratings,NULL,PennController,9,_Trial_,End,1732390502054,62b20662ca9e4e8378d8d7a3,6, otobüs,bus, araç,vehicles,bus1.jpeg,B,1,NULL
1732390517,70f5ef079b0b2a6217371d341304f703,PennController,15,0,ratings,NULL,PennController,14,_Trial_,Start,1732390502055,62b20662ca9e4e8378d8d7a3,11, masa,table, mobilya,furniture,table2.jpeg,B,2,NULL
1732390517,70f5ef079b0b2a6217371d341304f703,PennController,15,0,ratings,NULL,PennController,14,_Header_,Start,1732390502055,62b20662ca9e4e8378d8d7a3,11, masa,table, mobilya,furniture,table2.jpeg,B,2,NULL
1732390517,70f5ef079b0b2a6217371d341304f703,PennController,15,0,ratings,NULL,PennController,14,_Header_,End,1732390502055,62b20662ca9e4e8378d8d7a3,11, masa,table, mobilya,furniture,table2.jpeg,B,2,NULL
1732390517,70f5ef079b0b2a6217371d341304f703,PennController,15,0,ratings,NULL,Scale,scale,Choice,5,1732390503298,62b20662ca9e4e8378d8d7a3,11, masa,table, mobilya,furniture,table2.jpeg,B,2,NULL
1732390517,70f5ef079b0b2a6217371d341304f703,PennController,15,0,ratings,NULL,PennController,14,_Trial_,End,1732390504007,62b20662ca9e4e8378d8d7a3,11, masa,table, mobilya,furniture,table2.jpeg,B,2,NULL
1732390517,70f5ef079b0b2a6217371d341304f703,PennController,19,0,ratings,NULL,PennController,18,_Trial_,Start,1732390504008,62b20662ca9e4e8378d8d7a3,15, balık,fish, hayvan,animals,fish2.jpeg,B,2,NULL
1732390517,70f5ef079b0b2a6217371d341304f703,PennController,19,0,ratings,NULL,PennController,18,_Header_,Start,1732390504008,62b20662ca9e4e8378d8d7a3,15, balık,fish, hayvan,animals,fish2.jpeg,B,2,NULL
1732390517,70f5ef079b0b2a6217371d341304f703,PennController,19,0,ratings,NULL,PennController,18,_Header_,End,1732390504008,62b20662ca9e4e8378d8d7a3,15, balık,fish, hayvan,animals,fish2.jpeg,B,2,NULL
1732390517,70f5ef079b0b2a6217371d341304f703,PennController,19,0,ratings,NULL,Scale,scale,Choice,7,1732390507507,62b20662ca9e4e8378d8d7a3,15, balık,fish, hayvan,animals,fish2.jpeg,B,2,NULL
1732390517,70f5ef079b0b2a6217371d341304f703,PennController,19,0,ratings,NULL,PennController,18,_Trial_,End,1732390508215,62b20662ca9e4e8378d8d7a3,15, balık,fish, hayvan,animals,fish2.jpeg,B,2,NULL
1732390517,70f5ef079b0b2a6217371d341304f703,PennController,14,0,ratings,NULL,PennController,13,_Trial_,Start,1732390508215,62b20662ca9e4e8378d8d7a3,10, sandalye,chair, mobilya,furniture,chair1.jpeg,B,1,NULL
1732390517,70f5ef079b0b2a6217371d341304f703,PennController,14,0,ratings,NULL,PennController,13,_Header_,Start,1732390508215,62b20662ca9e4e8378d8d7a3,10, sandalye,chair, mobilya,furniture,chair1.jpeg,B,1,NULL
1732390517,70f5ef079b0b2a6217371d341304f703,PennController,14,0,ratings,NULL,PennController,13,_Header_,End,1732390508215,62b20662ca9e4e8378d8d7a3,10, sandalye,chair, mobilya,furniture,chair1.jpeg,B,1,NULL
1732390517,70f5ef079b0b2a6217371d341304f703,PennController,14,0,ratings,NULL,Scale,scale,Choice,6,1732390511385,62b20662ca9e4e8378d8d7a3,10, sandalye,chair, mobilya,furniture,chair1.jpeg,B,1,NULL
1732390517,70f5ef079b0b2a6217371d341304f703,PennController,14,0,ratings,NULL,PennController,13,_Trial_,End,1732390512090,62b20662ca9e4e8378d8d7a3,10, sandalye,chair, mobilya,furniture,chair1.jpeg,B,1,NULL
1732390517,70f5ef079b0b2a6217371d341304f703,PennController,6,0,ratings,NULL,PennController,5,_Trial_,Start,1732390512091,62b20662ca9e4e8378d8d7a3,2, kurabiye,cookie, unlu mamül,baked goods,cookie1.jpeg,B,1,NULL
1732390517,70f5ef079b0b2a6217371d341304f703,PennController,6,0,ratings,NULL,PennController,5,_Header_,Start,1732390512091,62b20662ca9e4e8378d8d7a3,2, kurabiye,cookie, unlu mamül,baked goods,cookie1.jpeg,B,1,NULL
1732390517,70f5ef079b0b2a6217371d341304f703,PennController,6,0,ratings,NULL,PennController,5,_Header_,End,1732390512091,62b20662ca9e4e8378d8d7a3,2, kurabiye,cookie, unlu mamül,baked goods,cookie1.jpeg,B,1,NULL
1732390517,70f5ef079b0b2a6217371d341304f703,PennController,6,0,ratings,NULL,Scale,scale,Choice,5,1732390514374,62b20662ca9e4e8378d8d7a3,2, kurabiye,cookie, unlu mamül,baked goods,cookie1.jpeg,B,1,NULL
1732390517,70f5ef079b0b2a6217371d341304f703,PennController,6,0,ratings,NULL,PennController,5,_Trial_,End,1732390515083,62b20662ca9e4e8378d8d7a3,2, kurabiye,cookie, unlu mamül,baked goods,cookie1.jpeg,B,1,NULL
1732390517,70f5ef079b0b2a6217371d341304f703,PennController,16,0,ratings,NULL,PennController,15,_Trial_,Start,1732390515084,62b20662ca9e4e8378d8d7a3,12, kanepe,couch, mobilya,furniture,couch1.jpeg,B,1,NULL
1732390517,70f5ef079b0b2a6217371d341304f703,PennController,16,0,ratings,NULL,PennController,15,_Header_,Start,1732390515084,62b20662ca9e4e8378d8d7a3,12, kanepe,couch, mobilya,furniture,couch1.jpeg,B,1,NULL
1732390517,70f5ef079b0b2a6217371d341304f703,PennController,16,0,ratings,NULL,PennController,15,_Header_,End,1732390515084,62b20662ca9e4e8378d8d7a3,12, kanepe,couch, mobilya,furniture,couch1.jpeg,B,1,NULL
1732390517,70f5ef079b0b2a6217371d341304f703,PennController,16,0,ratings,NULL,Scale,scale,Choice,5,1732390516340,62b20662ca9e4e8378d8d7a3,12, kanepe,couch, mobilya,furniture,couch1.jpeg,B,1,NULL
1732390517,70f5ef079b0b2a6217371d341304f703,PennController,16,0,ratings,NULL,PennController,15,_Trial_,End,1732390517048,62b20662ca9e4e8378d8d7a3,12, kanepe,couch, mobilya,furniture,couch1.jpeg,B,1,NULL
#
# Results on Sat, 23 Nov 2024 19:43:17 GMT
# USER AGENT: Mozilla/5.0 (Macintosh; Intel Mac OS X 10_15_7) AppleWebKit/537.36 (KHTML, like Gecko) Chrome/116.0.0.0 Safari/537.36
# Design number was non-random = 4
#
# Columns below this comment are as follows:
# 1. Results reception time.
# 2. MD5 hash of participant's IP address.
# 3. Controller name.
# 4. Order number of item.
# 5. Inner element number.
# 6. Label.
# 7. Latin Square Group.
# 8. PennElementType.
# 9. PennElementName.
# 10. Parameter.
# 11. Value.
# 12. EventTime.
# 13. PROLIFIC_ID.
# 14. Comments.
1732390997,b645dcd731570ed71588929801c910d8,PennController,2,0,consent,NULL,PennController,0,_Trial_,Start,1732390900219,63eff552140a06bc34b52b1e,NULL
1732390997,b645dcd731570ed71588929801c910d8,PennController,2,0,consent,NULL,PennController,0,_Header_,Start,1732390900219,63eff552140a06bc34b52b1e,NULL
1732390997,b645dcd731570ed71588929801c910d8,PennController,2,0,consent,NULL,PennController,0,_Header_,End,1732390900220,63eff552140a06bc34b52b1e,NULL
1732390997,b645dcd731570ed71588929801c910d8,PennController,2,0,consent,NULL,PennController,0,_Trial_,End,1732390904658,63eff552140a06bc34b52b1e,NULL
1732390997,b645dcd731570ed71588929801c910d8,PennController,3,0,instructions,NULL,PennController,1,_Trial_,Start,1732390904660,63eff552140a06bc34b52b1e,NULL
1732390997,b645dcd731570ed71588929801c910d8,PennController,3,0,instructions,NULL,PennController,1,_Header_,Start,1732390904660,63eff552140a06bc34b52b1e,NULL
1732390997,b645dcd731570ed71588929801c910d8,PennController,3,0,instructions,NULL,PennController,1,_Header_,End,1732390904660,63eff552140a06bc34b52b1e,NULL
1732390997,b645dcd731570ed71588929801c910d8,PennController,3,0,instructions,NULL,Scale,scale,Choice,6,1732390922240,63eff552140a06bc34b52b1e,NULL
1732390997,b645dcd731570ed71588929801c910d8,PennController,3,0,instructions,NULL,PennController,1,_Trial_,End,1732390924812,63eff552140a06bc34b52b1e,NULL
1732390997,b645dcd731570ed71588929801c910d8,PennController,4,0,exp-start,NULL,PennController,2,_Trial_,Start,1732390924813,63eff552140a06bc34b52b1e,NULL
1732390997,b645dcd731570ed71588929801c910d8,PennController,4,0,exp-start,NULL,PennController,2,_Header_,Start,1732390924813,63eff552140a06bc34b52b1e,NULL
1732390997,b645dcd731570ed71588929801c910d8,PennController,4,0,exp-start,NULL,PennController,2,_Header_,End,1732390924813,63eff552140a06bc34b52b1e,NULL
1732390997,b645dcd731570ed71588929801c910d8,PennController,4,0,exp-start,NULL,PennController,2,_Trial_,End,1732390927616,63eff552140a06bc34b52b1e,NULL
# 14. Item.
# 15. Noun_TR.
# 16. Noun_EN.
# 17. Category_TR.
# 18. Category_EN.
# 19. Image1.
# 20. Group.
# 21. Condition.
# 22. Comments.
1732390997,b645dcd731570ed71588929801c910d8,PennController,19,0,ratings,NULL,PennController,18,_Trial_,Start,1732390927617,63eff552140a06bc34b52b1e,15, balık,fish, hayvan,animals,fish1.jpeg,A,1,NULL
1732390997,b645dcd731570ed71588929801c910d8,PennController,19,0,ratings,NULL,PennController,18,_Header_,Start,1732390927617,63eff552140a06bc34b52b1e,15, balık,fish, hayvan,animals,fish1.jpeg,A,1,NULL
1732390997,b645dcd731570ed71588929801c910d8,PennController,19,0,ratings,NULL,PennController,18,_Header_,End,1732390927617,63eff552140a06bc34b52b1e,15, balık,fish, hayvan,animals,fish1.jpeg,A,1,NULL
1732390997,b645dcd731570ed71588929801c910d8,PennController,19,0,ratings,NULL,Scale,scale,Choice,7,1732390932426,63eff552140a06bc34b52b1e,15, balık,fish, hayvan,animals,fish1.jpeg,A,1,NULL
1732390997,b645dcd731570ed71588929801c910d8,PennController,19,0,ratings,NULL,PennController,18,_Trial_,End,1732390933129,63eff552140a06bc34b52b1e,15, balık,fish, hayvan,animals,fish1.jpeg,A,1,NULL
1732390997,b645dcd731570ed71588929801c910d8,PennController,14,0,ratings,NULL,PennController,13,_Trial_,Start,1732390933131,63eff552140a06bc34b52b1e,10, sandalye,chair, mobilya,furniture,chair2.jpeg,A,2,NULL
1732390997,b645dcd731570ed71588929801c910d8,PennController,14,0,ratings,NULL,PennController,13,_Header_,Start,1732390933131,63eff552140a06bc34b52b1e,10, sandalye,chair, mobilya,furniture,chair2.jpeg,A,2,NULL
1732390997,b645dcd731570ed71588929801c910d8,PennController,14,0,ratings,NULL,PennController,13,_Header_,End,1732390933131,63eff552140a06bc34b52b1e,10, sandalye,chair, mobilya,furniture,chair2.jpeg,A,2,NULL
1732390997,b645dcd731570ed71588929801c910d8,PennController,14,0,ratings,NULL,Scale,scale,Choice,4,1732390937858,63eff552140a06bc34b52b1e,10, sandalye,chair, mobilya,furniture,chair2.jpeg,A,2,NULL
1732390997,b645dcd731570ed71588929801c910d8,PennController,14,0,ratings,NULL,PennController,13,_Trial_,End,1732390938563,63eff552140a06bc34b52b1e,10, sandalye,chair, mobilya,furniture,chair2.jpeg,A,2,NULL
1732390997,b645dcd731570ed71588929801c910d8,PennController,11,0,ratings,NULL,PennController,10,_Trial_,Start,1732390938565,63eff552140a06bc34b52b1e,7, palto,coat, giysi,clothes,coat1.jpeg,A,1,NULL
1732390997,b645dcd731570ed71588929801c910d8,PennController,11,0,ratings,NULL,PennController,10,_Header_,Start,1732390938565,63eff552140a06bc34b52b1e,7, palto,coat, giysi,clothes,coat1.jpeg,A,1,NULL
1732390997,b645dcd731570ed71588929801c910d8,PennController,11,0,ratings,NULL,PennController,10,_Header_,End,1732390938565,63eff552140a06bc34b52b1e,7, palto,coat, giysi,clothes,coat1.jpeg,A,1,NULL
1732390997,b645dcd731570ed71588929801c910d8,PennController,11,0,ratings,NULL,Scale,scale,Choice,6,1732390942323,63eff552140a06bc34b52b1e,7, palto,coat, giysi,clothes,coat1.jpeg,A,1,NULL
1732390997,b645dcd731570ed71588929801c910d8,PennController,11,0,ratings,NULL,PennController,10,_Trial_,End,1732390943030,63eff552140a06bc34b52b1e,7, palto,coat, giysi,clothes,coat1.jpeg,A,1,NULL
1732390997,b645dcd731570ed71588929801c910d8,PennController,10,0,ratings,NULL,PennController,9,_Trial_,Start,1732390943031,63eff552140a06bc34b52b1e,6, otobüs,bus, araç,vehicles,bus2.jpeg,A,2,NULL
1732390997,b645dcd731570ed71588929801c910d8,PennController,10,0,ratings,NULL,PennController,9,_Header_,Start,1732390943031,63eff552140a06bc34b52b1e,6, otobüs,bus, araç,vehicles,bus2.jpeg,A,2,NULL
1732390997,b645dcd731570ed71588929801c910d8,PennController,10,0,ratings,NULL,PennController,9,_Header_,End,1732390943031,63eff552140a06bc34b52b1e,6, otobüs,bus, araç,vehicles,bus2.jpeg,A,2,NULL
1732390997,b645dcd731570ed71588929801c910d8,PennController,10,0,ratings,NULL,Scale,scale,Choice,6,1732390946747,63eff552140a06bc34b52b1e,6, otobüs,bus, araç,vehicles,bus2.jpeg,A,2,NULL
1732390997,b645dcd731570ed71588929801c910d8,PennController,10,0,ratings,NULL,PennController,9,_Trial_,End,1732390947451,63eff552140a06bc34b52b1e,6, otobüs,bus, araç,vehicles,bus2.jpeg,A,2,NULL
1732390997,b645dcd731570ed71588929801c910d8,PennController,17,0,ratings,NULL,PennController,16,_Trial_,Start,1732390947454,63eff552140a06bc34b52b1e,13, kuş,bird, hayvan,animals,bird1.jpeg,A,1,NULL
1732390997,b645dcd731570ed71588929801c910d8,PennController,17,0,ratings,NULL,PennController,16,_Header_,Start,1732390947454,63eff552140a06bc34b52b1e,13, kuş,bird, hayvan,animals,bird1.jpeg,A,1,NULL
1732390997,b645dcd731570ed71588929801c910d8,PennController,17,0,ratings,NULL,PennController,16,_Header_,End,1732390947454,63eff552140a06bc34b52b1e,13, kuş,bird, hayvan,animals,bird1.jpeg,A,1,NULL
1732390997,b645dcd731570ed71588929801c910d8,PennController,17,0,ratings,NULL,Scale,scale,Choice,7,1732390950542,63eff552140a06bc34b52b1e,13, kuş,bird, hayvan,animals,bird1.jpeg,A,1,NULL
1732390997,b645dcd731570ed71588929801c910d8,PennController,17,0,ratings,NULL,PennController,16,_Trial_,End,1732390951247,63eff552140a06bc34b52b1e,13, kuş,bird, hayvan,animals,bird1.jpeg,A,1,NULL
1732390997,b645dcd731570ed71588929801c910d8,PennController,6,0,ratings,NULL,PennController,5,_Trial_,Start,1732390951249,63eff552140a06bc34b52b1e,2, kurabiye,cookie, unlu mamül,baked goods,cookie2.jpeg,A,2,NULL
1732390997,b645dcd731570ed71588929801c910d8,PennController,6,0,ratings,NULL,PennController,5,_Header_,Start,1732390951249,63eff552140a06bc34b52b1e,2, kurabiye,cookie, unlu mamül,baked goods,cookie2.jpeg,A,2,NULL
1732390997,b645dcd731570ed71588929801c910d8,PennController,6,0,ratings,NULL,PennController,5,_Header_,End,1732390951249,63eff552140a06bc34b52b1e,2, kurabiye,cookie, unlu mamül,baked goods,cookie2.jpeg,A,2,NULL
1732390997,b645dcd731570ed71588929801c910d8,PennController,6,0,ratings,NULL,Scale,scale,Choice,5,1732390954894,63eff552140a06bc34b52b1e,2, kurabiye,cookie, unlu mamül,baked goods,cookie2.jpeg,A,2,NULL
1732390997,b645dcd731570ed71588929801c910d8,PennController,6,0,ratings,NULL,PennController,5,_Trial_,End,1732390955604,63eff552140a06bc34b52b1e,2, kurabiye,cookie, unlu mamül,baked goods,cookie2.jpeg,A,2,NULL
1732390997,b645dcd731570ed71588929801c910d8,PennController,20,0,ratings,NULL,PennController,19,_Trial_,Start,1732390955606,63eff552140a06bc34b52b1e,16, at,horse, hayvan,animals,horse2.jpeg,A,2,NULL
1732390997,b645dcd731570ed71588929801c910d8,PennController,20,0,ratings,NULL,PennController,19,_Header_,Start,1732390955606,63eff552140a06bc34b52b1e,16, at,horse, hayvan,animals,horse2.jpeg,A,2,NULL
1732390997,b645dcd731570ed71588929801c910d8,PennController,20,0,ratings,NULL,PennController,19,_Header_,End,1732390955606,63eff552140a06bc34b52b1e,16, at,horse, hayvan,animals,horse2.jpeg,A,2,NULL
1732390997,b645dcd731570ed71588929801c910d8,PennController,20,0,ratings,NULL,Scale,scale,Choice,3,1732390959954,63eff552140a06bc34b52b1e,16, at,horse, hayvan,animals,horse2.jpeg,A,2,NULL
1732390997,b645dcd731570ed71588929801c910d8,PennController,20,0,ratings,NULL,PennController,19,_Trial_,End,1732390960660,63eff552140a06bc34b52b1e,16, at,horse, hayvan,animals,horse2.jpeg,A,2,NULL
1732390997,b645dcd731570ed71588929801c910d8,PennController,15,0,ratings,NULL,PennController,14,_Trial_,Start,1732390960662,63eff552140a06bc34b52b1e,11, masa,table, mobilya,furniture,table1.jpeg,A,1,NULL
1732390997,b645dcd731570ed71588929801c910d8,PennController,15,0,ratings,NULL,PennController,14,_Header_,Start,1732390960662,63eff552140a06bc34b52b1e,11, masa,table, mobilya,furniture,table1.jpeg,A,1,NULL
1732390997,b645dcd731570ed71588929801c910d8,PennController,15,0,ratings,NULL,PennController,14,_Header_,End,1732390960662,63eff552140a06bc34b52b1e,11, masa,table, mobilya,furniture,table1.jpeg,A,1,NULL
1732390997,b645dcd731570ed71588929801c910d8,PennController,15,0,ratings,NULL,Scale,scale,Choice,7,1732390965779,63eff552140a06bc34b52b1e,11, masa,table, mobilya,furniture,table1.jpeg,A,1,NULL
1732390997,b645dcd731570ed71588929801c910d8,PennController,15,0,ratings,NULL,PennController,14,_Trial_,End,1732390966485,63eff552140a06bc34b52b1e,11, masa,table, mobilya,furniture,table1.jpeg,A,1,NULL
1732390997,b645dcd731570ed71588929801c910d8,PennController,9,0,ratings,NULL,PennController,8,_Trial_,Start,1732390966486,63eff552140a06bc34b52b1e,5, kamyon,truck, araç,vehicles,truck1.jpeg,A,1,NULL
1732390997,b645dcd731570ed71588929801c910d8,PennController,9,0,ratings,NULL,PennController,8,_Header_,Start,1732390966486,63eff552140a06bc34b52b1e,5, kamyon,truck, araç,vehicles,truck1.jpeg,A,1,NULL
1732390997,b645dcd731570ed71588929801c910d8,PennController,9,0,ratings,NULL,PennController,8,_Header_,End,1732390966486,63eff552140a06bc34b52b1e,5, kamyon,truck, araç,vehicles,truck1.jpeg,A,1,NULL
1732390997,b645dcd731570ed71588929801c910d8,PennController,9,0,ratings,NULL,Scale,scale,Choice,7,1732390969648,63eff552140a06bc34b52b1e,5, kamyon,truck, araç,vehicles,truck1.jpeg,A,1,NULL
1732390997,b645dcd731570ed71588929801c910d8,PennController,9,0,ratings,NULL,PennController,8,_Trial_,End,1732390970355,63eff552140a06bc34b52b1e,5, kamyon,truck, araç,vehicles,truck1.jpeg,A,1,NULL
1732390997,b645dcd731570ed71588929801c910d8,PennController,12,0,ratings,NULL,PennController,11,_Trial_,Start,1732390970356,63eff552140a06bc34b52b1e,8, ayakkabı,shoe, giysi,clothes,shoe2.jpeg,A,2,NULL
1732390997,b645dcd731570ed71588929801c910d8,PennController,12,0,ratings,NULL,PennController,11,_Header_,Start,1732390970356,63eff552140a06bc34b52b1e,8, ayakkabı,shoe, giysi,clothes,shoe2.jpeg,A,2,NULL
1732390997,b645dcd731570ed71588929801c910d8,PennController,12,0,ratings,NULL,PennController,11,_Header_,End,1732390970356,63eff552140a06bc34b52b1e,8, ayakkabı,shoe, giysi,clothes,shoe2.jpeg,A,2,NULL
1732390997,b645dcd731570ed71588929801c910d8,PennController,12,0,ratings,NULL,Scale,scale,Choice,6,1732390972628,63eff552140a06bc34b52b1e,8, ayakkabı,shoe, giysi,clothes,shoe2.jpeg,A,2,NULL
1732390997,b645dcd731570ed71588929801c910d8,PennController,12,0,ratings,NULL,PennController,11,_Trial_,End,1732390973333,63eff552140a06bc34b52b1e,8, ayakkabı,shoe, giysi,clothes,shoe2.jpeg,A,2,NULL
1732390997,b645dcd731570ed71588929801c910d8,PennController,18,0,ratings,NULL,PennController,17,_Trial_,Start,1732390973335,63eff552140a06bc34b52b1e,14, köpek,dog, hayvan,animals,dog2.jpeg,A,2,NULL
1732390997,b645dcd731570ed71588929801c910d8,PennController,18,0,ratings,NULL,PennController,17,_Header_,Start,1732390973335,63eff552140a06bc34b52b1e,14, köpek,dog, hayvan,animals,dog2.jpeg,A,2,NULL
1732390997,b645dcd731570ed71588929801c910d8,PennController,18,0,ratings,NULL,PennController,17,_Header_,End,1732390973335,63eff552140a06bc34b52b1e,14, köpek,dog, hayvan,animals,dog2.jpeg,A,2,NULL
1732390997,b645dcd731570ed71588929801c910d8,PennController,18,0,ratings,NULL,Scale,scale,Choice,4,1732390978413,63eff552140a06bc34b52b1e,14, köpek,dog, hayvan,animals,dog2.jpeg,A,2,NULL
1732390997,b645dcd731570ed71588929801c910d8,PennController,18,0,ratings,NULL,PennController,17,_Trial_,End,1732390979122,63eff552140a06bc34b52b1e,14, köpek,dog, hayvan,animals,dog2.jpeg,A,2,NULL
1732390997,b645dcd731570ed71588929801c910d8,PennController,16,0,ratings,NULL,PennController,15,_Trial_,Start,1732390979123,63eff552140a06bc34b52b1e,12, kanepe,couch, mobilya,furniture,couch2.jpeg,A,2,NULL
1732390997,b645dcd731570ed71588929801c910d8,PennController,16,0,ratings,NULL,PennController,15,_Header_,Start,1732390979123,63eff552140a06bc34b52b1e,12, kanepe,couch, mobilya,furniture,couch2.jpeg,A,2,NULL
1732390997,b645dcd731570ed71588929801c910d8,PennController,16,0,ratings,NULL,PennController,15,_Header_,End,1732390979123,63eff552140a06bc34b52b1e,12, kanepe,couch, mobilya,furniture,couch2.jpeg,A,2,NULL
1732390997,b645dcd731570ed71588929801c910d8,PennController,16,0,ratings,NULL,Scale,scale,Choice,5,1732390981161,63eff552140a06bc34b52b1e,12, kanepe,couch, mobilya,furniture,couch2.jpeg,A,2,NULL
1732390997,b645dcd731570ed71588929801c910d8,PennController,16,0,ratings,NULL,PennController,15,_Trial_,End,1732390981865,63eff552140a06bc34b52b1e,12, kanepe,couch, mobilya,furniture,couch2.jpeg,A,2,NULL
1732390997,b645dcd731570ed71588929801c910d8,PennController,5,0,ratings,NULL,PennController,4,_Trial_,Start,1732390981866,63eff552140a06bc34b52b1e,1, kek,cake, unlu mamül,baked goods,cake1.jpeg,A,1,NULL
1732390997,b645dcd731570ed71588929801c910d8,PennController,5,0,ratings,NULL,PennController,4,_Header_,Start,1732390981866,63eff552140a06bc34b52b1e,1, kek,cake, unlu mamül,baked goods,cake1.jpeg,A,1,NULL
1732390997,b645dcd731570ed71588929801c910d8,PennController,5,0,ratings,NULL,PennController,4,_Header_,End,1732390981866,63eff552140a06bc34b52b1e,1, kek,cake, unlu mamül,baked goods,cake1.jpeg,A,1,NULL
1732390997,b645dcd731570ed71588929801c910d8,PennController,5,0,ratings,NULL,Scale,scale,Choice,7,1732390985866,63eff552140a06bc34b52b1e,1, kek,cake, unlu mamül,baked goods,cake1.jpeg,A,1,NULL
1732390997,b645dcd731570ed71588929801c910d8,PennController,5,0,ratings,NULL,PennController,4,_Trial_,End,1732390986575,63eff552140a06bc34b52b1e,1, kek,cake, unlu mamül,baked goods,cake1.jpeg,A,1,NULL
1732390997,b645dcd731570ed71588929801c910d8,PennController,8,0,ratings,NULL,PennController,7,_Trial_,Start,1732390986576,63eff552140a06bc34b52b1e,4, araba,car, araç,vehicles,car2.jpeg,A,2,NULL
1732390997,b645dcd731570ed71588929801c910d8,PennController,8,0,ratings,NULL,PennController,7,_Header_,Start,1732390986576,63eff552140a06bc34b52b1e,4, araba,car, araç,vehicles,car2.jpeg,A,2,NULL
1732390997,b645dcd731570ed71588929801c910d8,PennController,8,0,ratings,NULL,PennController,7,_Header_,End,1732390986576,63eff552140a06bc34b52b1e,4, araba,car, araç,vehicles,car2.jpeg,A,2,NULL
1732390997,b645dcd731570ed71588929801c910d8,PennController,8,0,ratings,NULL,Scale,scale,Choice,2,1732390989041,63eff552140a06bc34b52b1e,4, araba,car, araç,vehicles,car2.jpeg,A,2,NULL
1732390997,b645dcd731570ed71588929801c910d8,PennController,8,0,ratings,NULL,PennController,7,_Trial_,End,1732390989749,63eff552140a06bc34b52b1e,4, araba,car, araç,vehicles,car2.jpeg,A,2,NULL
1732390997,b645dcd731570ed71588929801c910d8,PennController,7,0,ratings,NULL,PennController,6,_Trial_,Start,1732390989750,63eff552140a06bc34b52b1e,3, ekmek,bread, unlu mamül,baked goods,bread1.jpeg,A,1,NULL
1732390997,b645dcd731570ed71588929801c910d8,PennController,7,0,ratings,NULL,PennController,6,_Header_,Start,1732390989750,63eff552140a06bc34b52b1e,3, ekmek,bread, unlu mamül,baked goods,bread1.jpeg,A,1,NULL
1732390997,b645dcd731570ed71588929801c910d8,PennController,7,0,ratings,NULL,PennController,6,_Header_,End,1732390989750,63eff552140a06bc34b52b1e,3, ekmek,bread, unlu mamül,baked goods,bread1.jpeg,A,1,NULL
1732390997,b645dcd731570ed71588929801c910d8,PennController,7,0,ratings,NULL,Scale,scale,Choice,6,1732390993383,63eff552140a06bc34b52b1e,3, ekmek,bread, unlu mamül,baked goods,bread1.jpeg,A,1,NULL
1732390997,b645dcd731570ed71588929801c910d8,PennController,7,0,ratings,NULL,PennController,6,_Trial_,End,1732390994090,63eff552140a06bc34b52b1e,3, ekmek,bread, unlu mamül,baked goods,bread1.jpeg,A,1,NULL
1732390997,b645dcd731570ed71588929801c910d8,PennController,13,0,ratings,NULL,PennController,12,_Trial_,Start,1732390994091,63eff552140a06bc34b52b1e,9, şapka,hat, giysi,clothes,hat1.jpeg,A,1,NULL
1732390997,b645dcd731570ed71588929801c910d8,PennController,13,0,ratings,NULL,PennController,12,_Header_,Start,1732390994091,63eff552140a06bc34b52b1e,9, şapka,hat, giysi,clothes,hat1.jpeg,A,1,NULL
1732390997,b645dcd731570ed71588929801c910d8,PennController,13,0,ratings,NULL,PennController,12,_Header_,End,1732390994091,63eff552140a06bc34b52b1e,9, şapka,hat, giysi,clothes,hat1.jpeg,A,1,NULL
1732390997,b645dcd731570ed71588929801c910d8,PennController,13,0,ratings,NULL,Scale,scale,Choice,6,1732390995768,63eff552140a06bc34b52b1e,9, şapka,hat, giysi,clothes,hat1.jpeg,A,1,NULL
1732390997,b645dcd731570ed71588929801c910d8,PennController,13,0,ratings,NULL,PennController,12,_Trial_,End,1732390996477,63eff552140a06bc34b52b1e,9, şapka,hat, giysi,clothes,hat1.jpeg,A,1,NULL
#
# Results on Sat, 23 Nov 2024 19:52:14 GMT
# USER AGENT: Mozilla/5.0 (Linux; Android 10; K) AppleWebKit/537.36 (KHTML, like Gecko) Chrome/131.0.0.0 Mobile Safari/537.36
# Design number was non-random = 5
#
# Columns below this comment are as follows:
# 1. Results reception time.
# 2. MD5 hash of participant's IP address.
# 3. Controller name.
# 4. Order number of item.
# 5. Inner element number.
# 6. Label.
# 7. Latin Square Group.
# 8. PennElementType.
# 9. PennElementName.
# 10. Parameter.
# 11. Value.
# 12. EventTime.
# 13. PROLIFIC_ID.
# 14. Comments.
1732391534,6bbca3b4b05b433ed54a320ed6173a7b,PennController,2,0,consent,NULL,PennController,0,_Trial_,Start,1732391445330,5fa2b0b5a0ba5e4c859ec520,NULL
1732391534,6bbca3b4b05b433ed54a320ed6173a7b,PennController,2,0,consent,NULL,PennController,0,_Header_,Start,1732391445330,5fa2b0b5a0ba5e4c859ec520,NULL
1732391534,6bbca3b4b05b433ed54a320ed6173a7b,PennController,2,0,consent,NULL,PennController,0,_Header_,End,1732391445330,5fa2b0b5a0ba5e4c859ec520,NULL
1732391534,6bbca3b4b05b433ed54a320ed6173a7b,PennController,2,0,consent,NULL,PennController,0,_Trial_,End,1732391448030,5fa2b0b5a0ba5e4c859ec520,NULL
1732391534,6bbca3b4b05b433ed54a320ed6173a7b,PennController,3,0,instructions,NULL,PennController,1,_Trial_,Start,1732391448039,5fa2b0b5a0ba5e4c859ec520,NULL
1732391534,6bbca3b4b05b433ed54a320ed6173a7b,PennController,3,0,instructions,NULL,PennController,1,_Header_,Start,1732391448039,5fa2b0b5a0ba5e4c859ec520,NULL
1732391534,6bbca3b4b05b433ed54a320ed6173a7b,PennController,3,0,instructions,NULL,PennController,1,_Header_,End,1732391448039,5fa2b0b5a0ba5e4c859ec520,NULL
1732391534,6bbca3b4b05b433ed54a320ed6173a7b,PennController,3,0,instructions,NULL,Scale,scale,Choice,7,1732391477546,5fa2b0b5a0ba5e4c859ec520,NULL
1732391534,6bbca3b4b05b433ed54a320ed6173a7b,PennController,3,0,instructions,NULL,PennController,1,_Trial_,End,1732391478587,5fa2b0b5a0ba5e4c859ec520,NULL
1732391534,6bbca3b4b05b433ed54a320ed6173a7b,PennController,4,0,exp-start,NULL,PennController,2,_Trial_,Start,1732391478596,5fa2b0b5a0ba5e4c859ec520,NULL
1732391534,6bbca3b4b05b433ed54a320ed6173a7b,PennController,4,0,exp-start,NULL,PennController,2,_Header_,Start,1732391478596,5fa2b0b5a0ba5e4c859ec520,NULL
1732391534,6bbca3b4b05b433ed54a320ed6173a7b,PennController,4,0,exp-start,NULL,PennController,2,_Header_,End,1732391478596,5fa2b0b5a0ba5e4c859ec520,NULL
1732391534,6bbca3b4b05b433ed54a320ed6173a7b,PennController,4,0,exp-start,NULL,PennController,2,_Trial_,End,1732391483301,5fa2b0b5a0ba5e4c859ec520,NULL
# 14. Item.
# 15. Noun_TR.
# 16. Noun_EN.
# 17. Category_TR.
# 18. Category_EN.
# 19. Image1.
# 20. Group.
# 21. Condition.
# 22. Comments.
1732391534,6bbca3b4b05b433ed54a320ed6173a7b,PennController,13,0,ratings,NULL,PennController,12,_Trial_,Start,1732391483308,5fa2b0b5a0ba5e4c859ec520,9, şapka,hat, giysi,clothes,hat2.jpeg,B,2,NULL
1732391534,6bbca3b4b05b433ed54a320ed6173a7b,PennController,13,0,ratings,NULL,PennController,12,_Header_,Start,1732391483309,5fa2b0b5a0ba5e4c859ec520,9, şapka,hat, giysi,clothes,hat2.jpeg,B,2,NULL
1732391534,6bbca3b4b05b433ed54a320ed6173a7b,PennController,13,0,ratings,NULL,PennController,12,_Header_,End,1732391483309,5fa2b0b5a0ba5e4c859ec520,9, şapka,hat, giysi,clothes,hat2.jpeg,B,2,NULL
1732391534,6bbca3b4b05b433ed54a320ed6173a7b,PennController,13,0,ratings,NULL,Scale,scale,Choice,5,1732391489437,5fa2b0b5a0ba5e4c859ec520,9, şapka,hat, giysi,clothes,hat2.jpeg,B,2,NULL
1732391534,6bbca3b4b05b433ed54a320ed6173a7b,PennController,13,0,ratings,NULL,PennController,12,_Trial_,End,1732391490165,5fa2b0b5a0ba5e4c859ec520,9, şapka,hat, giysi,clothes,hat2.jpeg,B,2,NULL
1732391534,6bbca3b4b05b433ed54a320ed6173a7b,PennController,6,0,ratings,NULL,PennController,5,_Trial_,Start,1732391490173,5fa2b0b5a0ba5e4c859ec520,2, kurabiye,cookie, unlu mamül,baked goods,cookie1.jpeg,B,1,NULL
1732391534,6bbca3b4b05b433ed54a320ed6173a7b,PennController,6,0,ratings,NULL,PennController,5,_Header_,Start,1732391490173,5fa2b0b5a0ba5e4c859ec520,2, kurabiye,cookie, unlu mamül,baked goods,cookie1.jpeg,B,1,NULL
1732391534,6bbca3b4b05b433ed54a320ed6173a7b,PennController,6,0,ratings,NULL,PennController,5,_Header_,End,1732391490173,5fa2b0b5a0ba5e4c859ec520,2, kurabiye,cookie, unlu mamül,baked goods,cookie1.jpeg,B,1,NULL
1732391534,6bbca3b4b05b433ed54a320ed6173a7b,PennController,6,0,ratings,NULL,Scale,scale,Choice,7,1732391492970,5fa2b0b5a0ba5e4c859ec520,2, kurabiye,cookie, unlu mamül,baked goods,cookie1.jpeg,B,1,NULL
1732391534,6bbca3b4b05b433ed54a320ed6173a7b,PennController,6,0,ratings,NULL,PennController,5,_Trial_,End,1732391493695,5fa2b0b5a0ba5e4c859ec520,2, kurabiye,cookie, unlu mamül,baked goods,cookie1.jpeg,B,1,NULL
1732391534,6bbca3b4b05b433ed54a320ed6173a7b,PennController,9,0,ratings,NULL,PennController,8,_Trial_,Start,1732391493711,5fa2b0b5a0ba5e4c859ec520,5, kamyon,truck, araç,vehicles,truck2.jpeg,B,2,NULL
1732391534,6bbca3b4b05b433ed54a320ed6173a7b,PennController,9,0,ratings,NULL,PennController,8,_Header_,Start,1732391493711,5fa2b0b5a0ba5e4c859ec520,5, kamyon,truck, araç,vehicles,truck2.jpeg,B,2,NULL
1732391534,6bbca3b4b05b433ed54a320ed6173a7b,PennController,9,0,ratings,NULL,PennController,8,_Header_,End,1732391493711,5fa2b0b5a0ba5e4c859ec520,5, kamyon,truck, araç,vehicles,truck2.jpeg,B,2,NULL
1732391534,6bbca3b4b05b433ed54a320ed6173a7b,PennController,9,0,ratings,NULL,Scale,scale,Choice,3,1732391496603,5fa2b0b5a0ba5e4c859ec520,5, kamyon,truck, araç,vehicles,truck2.jpeg,B,2,NULL
1732391534,6bbca3b4b05b433ed54a320ed6173a7b,PennController,9,0,ratings,NULL,PennController,8,_Trial_,End,1732391497323,5fa2b0b5a0ba5e4c859ec520,5, kamyon,truck, araç,vehicles,truck2.jpeg,B,2,NULL
1732391534,6bbca3b4b05b433ed54a320ed6173a7b,PennController,8,0,ratings,NULL,PennController,7,_Trial_,Start,1732391497327,5fa2b0b5a0ba5e4c859ec520,4, araba,car, araç,vehicles,car1.jpeg,B,1,NULL
1732391534,6bbca3b4b05b433ed54a320ed6173a7b,PennController,8,0,ratings,NULL,PennController,7,_Header_,Start,1732391497327,5fa2b0b5a0ba5e4c859ec520,4, araba,car, araç,vehicles,car1.jpeg,B,1,NULL
1732391534,6bbca3b4b05b433ed54a320ed6173a7b,PennController,8,0,ratings,NULL,PennController,7,_Header_,End,1732391497327,5fa2b0b5a0ba5e4c859ec520,4, araba,car, araç,vehicles,car1.jpeg,B,1,NULL
1732391534,6bbca3b4b05b433ed54a320ed6173a7b,PennController,8,0,ratings,NULL,Scale,scale,Choice,7,1732391500012,5fa2b0b5a0ba5e4c859ec520,4, araba,car, araç,vehicles,car1.jpeg,B,1,NULL
1732391534,6bbca3b4b05b433ed54a320ed6173a7b,PennController,8,0,ratings,NULL,PennController,7,_Trial_,End,1732391500732,5fa2b0b5a0ba5e4c859ec520,4, araba,car, araç,vehicles,car1.jpeg,B,1,NULL
1732391534,6bbca3b4b05b433ed54a320ed6173a7b,PennController,18,0,ratings,NULL,PennController,17,_Trial_,Start,1732391500745,5fa2b0b5a0ba5e4c859ec520,14, köpek,dog, hayvan,animals,dog1.jpeg,B,1,NULL
1732391534,6bbca3b4b05b433ed54a320ed6173a7b,PennController,18,0,ratings,NULL,PennController,17,_Header_,Start,1732391500745,5fa2b0b5a0ba5e4c859ec520,14, köpek,dog, hayvan,animals,dog1.jpeg,B,1,NULL
1732391534,6bbca3b4b05b433ed54a320ed6173a7b,PennController,18,0,ratings,NULL,PennController,17,_Header_,End,1732391500746,5fa2b0b5a0ba5e4c859ec520,14, köpek,dog, hayvan,animals,dog1.jpeg,B,1,NULL
1732391534,6bbca3b4b05b433ed54a320ed6173a7b,PennController,18,0,ratings,NULL,Scale,scale,Choice,7,1732391502651,5fa2b0b5a0ba5e4c859ec520,14, köpek,dog, hayvan,animals,dog1.jpeg,B,1,NULL
1732391534,6bbca3b4b05b433ed54a320ed6173a7b,PennController,18,0,ratings,NULL,PennController,17,_Trial_,End,1732391503372,5fa2b0b5a0ba5e4c859ec520,14, köpek,dog, hayvan,animals,dog1.jpeg,B,1,NULL
1732391534,6bbca3b4b05b433ed54a320ed6173a7b,PennController,11,0,ratings,NULL,PennController,10,_Trial_,Start,1732391503384,5fa2b0b5a0ba5e4c859ec520,7, palto,coat, giysi,clothes,coat2.jpeg,B,2,NULL
1732391534,6bbca3b4b05b433ed54a320ed6173a7b,PennController,11,0,ratings,NULL,PennController,10,_Header_,Start,1732391503385,5fa2b0b5a0ba5e4c859ec520,7, palto,coat, giysi,clothes,coat2.jpeg,B,2,NULL
1732391534,6bbca3b4b05b433ed54a320ed6173a7b,PennController,11,0,ratings,NULL,PennController,10,_Header_,End,1732391503385,5fa2b0b5a0ba5e4c859ec520,7, palto,coat, giysi,clothes,coat2.jpeg,B,2,NULL
1732391534,6bbca3b4b05b433ed54a320ed6173a7b,PennController,11,0,ratings,NULL,Scale,scale,Choice,4,1732391505227,5fa2b0b5a0ba5e4c859ec520,7, palto,coat, giysi,clothes,coat2.jpeg,B,2,NULL
1732391534,6bbca3b4b05b433ed54a320ed6173a7b,PennController,11,0,ratings,NULL,PennController,10,_Trial_,End,1732391505943,5fa2b0b5a0ba5e4c859ec520,7, palto,coat, giysi,clothes,coat2.jpeg,B,2,NULL
1732391534,6bbca3b4b05b433ed54a320ed6173a7b,PennController,7,0,ratings,NULL,PennController,6,_Trial_,Start,1732391505951,5fa2b0b5a0ba5e4c859ec520,3, ekmek,bread, unlu mamül,baked goods,bread2.jpeg,B,2,NULL
1732391534,6bbca3b4b05b433ed54a320ed6173a7b,PennController,7,0,ratings,NULL,PennController,6,_Header_,Start,1732391505951,5fa2b0b5a0ba5e4c859ec520,3, ekmek,bread, unlu mamül,baked goods,bread2.jpeg,B,2,NULL
1732391534,6bbca3b4b05b433ed54a320ed6173a7b,PennController,7,0,ratings,NULL,PennController,6,_Header_,End,1732391505951,5fa2b0b5a0ba5e4c859ec520,3, ekmek,bread, unlu mamül,baked goods,bread2.jpeg,B,2,NULL
1732391534,6bbca3b4b05b433ed54a320ed6173a7b,PennController,7,0,ratings,NULL,Scale,scale,Choice,3,1732391509217,5fa2b0b5a0ba5e4c859ec520,3, ekmek,bread, unlu mamül,baked goods,bread2.jpeg,B,2,NULL
1732391534,6bbca3b4b05b433ed54a320ed6173a7b,PennController,7,0,ratings,NULL,PennController,6,_Trial_,End,1732391509936,5fa2b0b5a0ba5e4c859ec520,3, ekmek,bread, unlu mamül,baked goods,bread2.jpeg,B,2,NULL
1732391534,6bbca3b4b05b433ed54a320ed6173a7b,PennController,12,0,ratings,NULL,PennController,11,_Trial_,Start,1732391509949,5fa2b0b5a0ba5e4c859ec520,8, ayakkabı,shoe, giysi,clothes,shoe1.jpeg,B,1,NULL
1732391534,6bbca3b4b05b433ed54a320ed6173a7b,PennController,12,0,ratings,NULL,PennController,11,_Header_,Start,1732391509949,5fa2b0b5a0ba5e4c859ec520,8, ayakkabı,shoe, giysi,clothes,shoe1.jpeg,B,1,NULL
1732391534,6bbca3b4b05b433ed54a320ed6173a7b,PennController,12,0,ratings,NULL,PennController,11,_Header_,End,1732391509949,5fa2b0b5a0ba5e4c859ec520,8, ayakkabı,shoe, giysi,clothes,shoe1.jpeg,B,1,NULL
1732391534,6bbca3b4b05b433ed54a320ed6173a7b,PennController,12,0,ratings,NULL,Scale,scale,Choice,7,1732391511967,5fa2b0b5a0ba5e4c859ec520,8, ayakkabı,shoe, giysi,clothes,shoe1.jpeg,B,1,NULL
1732391534,6bbca3b4b05b433ed54a320ed6173a7b,PennController,12,0,ratings,NULL,PennController,11,_Trial_,End,1732391512682,5fa2b0b5a0ba5e4c859ec520,8, ayakkabı,shoe, giysi,clothes,shoe1.jpeg,B,1,NULL
1732391534,6bbca3b4b05b433ed54a320ed6173a7b,PennController,14,0,ratings,NULL,PennController,13,_Trial_,Start,1732391512693,5fa2b0b5a0ba5e4c859ec520,10, sandalye,chair, mobilya,furniture,chair1.jpeg,B,1,NULL
1732391534,6bbca3b4b05b433ed54a320ed6173a7b,PennController,14,0,ratings,NULL,PennController,13,_Header_,Start,1732391512693,5fa2b0b5a0ba5e4c859ec520,10, sandalye,chair, mobilya,furniture,chair1.jpeg,B,1,NULL
1732391534,6bbca3b4b05b433ed54a320ed6173a7b,PennController,14,0,ratings,NULL,PennController,13,_Header_,End,1732391512693,5fa2b0b5a0ba5e4c859ec520,10, sandalye,chair, mobilya,furniture,chair1.jpeg,B,1,NULL
1732391534,6bbca3b4b05b433ed54a320ed6173a7b,PennController,14,0,ratings,NULL,Scale,scale,Choice,7,1732391514644,5fa2b0b5a0ba5e4c859ec520,10, sandalye,chair, mobilya,furniture,chair1.jpeg,B,1,NULL
1732391534,6bbca3b4b05b433ed54a320ed6173a7b,PennController,14,0,ratings,NULL,PennController,13,_Trial_,End,1732391515362,5fa2b0b5a0ba5e4c859ec520,10, sandalye,chair, mobilya,furniture,chair1.jpeg,B,1,NULL
1732391534,6bbca3b4b05b433ed54a320ed6173a7b,PennController,17,0,ratings,NULL,PennController,16,_Trial_,Start,1732391515369,5fa2b0b5a0ba5e4c859ec520,13, kuş,bird, hayvan,animals,bird2.jpeg,B,2,NULL
1732391534,6bbca3b4b05b433ed54a320ed6173a7b,PennController,17,0,ratings,NULL,PennController,16,_Header_,Start,1732391515369,5fa2b0b5a0ba5e4c859ec520,13, kuş,bird, hayvan,animals,bird2.jpeg,B,2,NULL
1732391534,6bbca3b4b05b433ed54a320ed6173a7b,PennController,17,0,ratings,NULL,PennController,16,_Header_,End,1732391515369,5fa2b0b5a0ba5e4c859ec520,13, kuş,bird, hayvan,animals,bird2.jpeg,B,2,NULL
1732391534,6bbca3b4b05b433ed54a320ed6173a7b,PennController,17,0,ratings,NULL,Scale,scale,Choice,6,1732391518867,5fa2b0b5a0ba5e4c859ec520,13, kuş,bird, hayvan,animals,bird2.jpeg,B,2,NULL
1732391534,6bbca3b4b05b433ed54a320ed6173a7b,PennController,17,0,ratings,NULL,PennController,16,_Trial_,End,1732391519586,5fa2b0b5a0ba5e4c859ec520,13, kuş,bird, hayvan,animals,bird2.jpeg,B,2,NULL
1732391534,6bbca3b4b05b433ed54a320ed6173a7b,PennController,19,0,ratings,NULL,PennController,18,_Trial_,Start,1732391519599,5fa2b0b5a0ba5e4c859ec520,15, balık,fish, hayvan,animals,fish2.jpeg,B,2,NULL
1732391534,6bbca3b4b05b433ed54a320ed6173a7b,PennController,19,0,ratings,NULL,PennController,18,_Header_,Start,1732391519599,5fa2b0b5a0ba5e4c859ec520,15, balık,fish, hayvan,animals,fish2.jpeg,B,2,NULL
1732391534,6bbca3b4b05b433ed54a320ed6173a7b,PennController,19,0,ratings,NULL,PennController,18,_Header_,End,1732391519599,5fa2b0b5a0ba5e4c859ec520,15, balık,fish, hayvan,animals,fish2.jpeg,B,2,NULL
1732391534,6bbca3b4b05b433ed54a320ed6173a7b,PennController,19,0,ratings,NULL,Scale,scale,Choice,5,1732391521501,5fa2b0b5a0ba5e4c859ec520,15, balık,fish, hayvan,animals,fish2.jpeg,B,2,NULL
1732391534,6bbca3b4b05b433ed54a320ed6173a7b,PennController,19,0,ratings,NULL,PennController,18,_Trial_,End,1732391522230,5fa2b0b5a0ba5e4c859ec520,15, balık,fish, hayvan,animals,fish2.jpeg,B,2,NULL
1732391534,6bbca3b4b05b433ed54a320ed6173a7b,PennController,10,0,ratings,NULL,PennController,9,_Trial_,Start,1732391522246,5fa2b0b5a0ba5e4c859ec520,6, otobüs,bus, araç,vehicles,bus1.jpeg,B,1,NULL
1732391534,6bbca3b4b05b433ed54a320ed6173a7b,PennController,10,0,ratings,NULL,PennController,9,_Header_,Start,1732391522246,5fa2b0b5a0ba5e4c859ec520,6, otobüs,bus, araç,vehicles,bus1.jpeg,B,1,NULL
1732391534,6bbca3b4b05b433ed54a320ed6173a7b,PennController,10,0,ratings,NULL,PennController,9,_Header_,End,1732391522246,5fa2b0b5a0ba5e4c859ec520,6, otobüs,bus, araç,vehicles,bus1.jpeg,B,1,NULL
1732391534,6bbca3b4b05b433ed54a320ed6173a7b,PennController,10,0,ratings,NULL,Scale,scale,Choice,7,1732391523649,5fa2b0b5a0ba5e4c859ec520,6, otobüs,bus, araç,vehicles,bus1.jpeg,B,1,NULL
1732391534,6bbca3b4b05b433ed54a320ed6173a7b,PennController,10,0,ratings,NULL,PennController,9,_Trial_,End,1732391524373,5fa2b0b5a0ba5e4c859ec520,6, otobüs,bus, araç,vehicles,bus1.jpeg,B,1,NULL
1732391534,6bbca3b4b05b433ed54a320ed6173a7b,PennController,5,0,ratings,NULL,PennController,4,_Trial_,Start,1732391524384,5fa2b0b5a0ba5e4c859ec520,1, kek,cake, unlu mamül,baked goods,cake2.jpeg,B,2,NULL
1732391534,6bbca3b4b05b433ed54a320ed6173a7b,PennController,5,0,ratings,NULL,PennController,4,_Header_,Start,1732391524385,5fa2b0b5a0ba5e4c859ec520,1, kek,cake, unlu mamül,baked goods,cake2.jpeg,B,2,NULL
1732391534,6bbca3b4b05b433ed54a320ed6173a7b,PennController,5,0,ratings,NULL,PennController,4,_Header_,End,1732391524385,5fa2b0b5a0ba5e4c859ec520,1, kek,cake, unlu mamül,baked goods,cake2.jpeg,B,2,NULL
1732391534,6bbca3b4b05b433ed54a320ed6173a7b,PennController,5,0,ratings,NULL,Scale,scale,Choice,6,1732391526364,5fa2b0b5a0ba5e4c859ec520,1, kek,cake, unlu mamül,baked goods,cake2.jpeg,B,2,NULL
1732391534,6bbca3b4b05b433ed54a320ed6173a7b,PennController,5,0,ratings,NULL,PennController,4,_Trial_,End,1732391527079,5fa2b0b5a0ba5e4c859ec520,1, kek,cake, unlu mamül,baked goods,cake2.jpeg,B,2,NULL
1732391534,6bbca3b4b05b433ed54a320ed6173a7b,PennController,15,0,ratings,NULL,PennController,14,_Trial_,Start,1732391527090,5fa2b0b5a0ba5e4c859ec520,11, masa,table, mobilya,furniture,table2.jpeg,B,2,NULL
1732391534,6bbca3b4b05b433ed54a320ed6173a7b,PennController,15,0,ratings,NULL,PennController,14,_Header_,Start,1732391527091,5fa2b0b5a0ba5e4c859ec520,11, masa,table, mobilya,furniture,table2.jpeg,B,2,NULL
1732391534,6bbca3b4b05b433ed54a320ed6173a7b,PennController,15,0,ratings,NULL,PennController,14,_Header_,End,1732391527091,5fa2b0b5a0ba5e4c859ec520,11, masa,table, mobilya,furniture,table2.jpeg,B,2,NULL
1732391534,6bbca3b4b05b433ed54a320ed6173a7b,PennController,15,0,ratings,NULL,Scale,scale,Choice,6,1732391529390,5fa2b0b5a0ba5e4c859ec520,11, masa,table, mobilya,furniture,table2.jpeg,B,2,NULL
1732391534,6bbca3b4b05b433ed54a320ed6173a7b,PennController,15,0,ratings,NULL,PennController,14,_Trial_,End,1732391530116,5fa2b0b5a0ba5e4c859ec520,11, masa,table, mobilya,furniture,table2.jpeg,B,2,NULL
1732391534,6bbca3b4b05b433ed54a320ed6173a7b,PennController,16,0,ratings,NULL,PennController,15,_Trial_,Start,1732391530125,5fa2b0b5a0ba5e4c859ec520,12, kanepe,couch, mobilya,furniture,couch1.jpeg,B,1,NULL
1732391534,6bbca3b4b05b433ed54a320ed6173a7b,PennController,16,0,ratings,NULL,PennController,15,_Header_,Start,1732391530125,5fa2b0b5a0ba5e4c859ec520,12, kanepe,couch, mobilya,furniture,couch1.jpeg,B,1,NULL
1732391534,6bbca3b4b05b433ed54a320ed6173a7b,PennController,16,0,ratings,NULL,PennController,15,_Header_,End,1732391530126,5fa2b0b5a0ba5e4c859ec520,12, kanepe,couch, mobilya,furniture,couch1.jpeg,B,1,NULL
1732391534,6bbca3b4b05b433ed54a320ed6173a7b,PennController,16,0,ratings,NULL,Scale,scale,Choice,7,1732391531565,5fa2b0b5a0ba5e4c859ec520,12, kanepe,couch, mobilya,furniture,couch1.jpeg,B,1,NULL
1732391534,6bbca3b4b05b433ed54a320ed6173a7b,PennController,16,0,ratings,NULL,PennController,15,_Trial_,End,1732391532279,5fa2b0b5a0ba5e4c859ec520,12, kanepe,couch, mobilya,furniture,couch1.jpeg,B,1,NULL
1732391534,6bbca3b4b05b433ed54a320ed6173a7b,PennController,20,0,ratings,NULL,PennController,19,_Trial_,Start,1732391532289,5fa2b0b5a0ba5e4c859ec520,16, at,horse, hayvan,animals,horse1.jpeg,B,1,NULL
1732391534,6bbca3b4b05b433ed54a320ed6173a7b,PennController,20,0,ratings,NULL,PennController,19,_Header_,Start,1732391532289,5fa2b0b5a0ba5e4c859ec520,16, at,horse, hayvan,animals,horse1.jpeg,B,1,NULL
1732391534,6bbca3b4b05b433ed54a320ed6173a7b,PennController,20,0,ratings,NULL,PennController,19,_Header_,End,1732391532289,5fa2b0b5a0ba5e4c859ec520,16, at,horse, hayvan,animals,horse1.jpeg,B,1,NULL
1732391534,6bbca3b4b05b433ed54a320ed6173a7b,PennController,20,0,ratings,NULL,Scale,scale,Choice,7,1732391534130,5fa2b0b5a0ba5e4c859ec520,16, at,horse, hayvan,animals,horse1.jpeg,B,1,NULL
1732391534,6bbca3b4b05b433ed54a320ed6173a7b,PennController,20,0,ratings,NULL,PennController,19,_Trial_,End,1732391534850,5fa2b0b5a0ba5e4c859ec520,16, at,horse, hayvan,animals,horse1.jpeg,B,1,NULL
#
# Results on Sat, 23 Nov 2024 20:04:54 GMT
# USER AGENT: Mozilla/5.0 (Macintosh; Intel Mac OS X 10_15_7) AppleWebKit/537.36 (KHTML, like Gecko) Chrome/131.0.0.0 Safari/537.36
# Design number was non-random = 6
#
# Columns below this comment are as follows:
# 1. Results reception time.
# 2. MD5 hash of participant's IP address.
# 3. Controller name.
# 4. Order number of item.
# 5. Inner element number.
# 6. Label.
# 7. Latin Square Group.
# 8. PennElementType.
# 9. PennElementName.
# 10. Parameter.
# 11. Value.
# 12. EventTime.
# 13. PROLIFIC_ID.
# 14. Comments.
1732392294,d6898ede12be793e9dee0beb65ca0c6b,PennController,2,0,consent,NULL,PennController,0,_Trial_,Start,1732392228790,5efea1f363271c3b76d4c9ed,NULL
1732392294,d6898ede12be793e9dee0beb65ca0c6b,PennController,2,0,consent,NULL,PennController,0,_Header_,Start,1732392228790,5efea1f363271c3b76d4c9ed,NULL
1732392294,d6898ede12be793e9dee0beb65ca0c6b,PennController,2,0,consent,NULL,PennController,0,_Header_,End,1732392228790,5efea1f363271c3b76d4c9ed,NULL
1732392294,d6898ede12be793e9dee0beb65ca0c6b,PennController,2,0,consent,NULL,PennController,0,_Trial_,End,1732392234530,5efea1f363271c3b76d4c9ed,NULL
1732392294,d6898ede12be793e9dee0beb65ca0c6b,PennController,3,0,instructions,NULL,PennController,1,_Trial_,Start,1732392234532,5efea1f363271c3b76d4c9ed,NULL
1732392294,d6898ede12be793e9dee0beb65ca0c6b,PennController,3,0,instructions,NULL,PennController,1,_Header_,Start,1732392234532,5efea1f363271c3b76d4c9ed,NULL
1732392294,d6898ede12be793e9dee0beb65ca0c6b,PennController,3,0,instructions,NULL,PennController,1,_Header_,End,1732392234532,5efea1f363271c3b76d4c9ed,NULL
1732392294,d6898ede12be793e9dee0beb65ca0c6b,PennController,3,0,instructions,NULL,Scale,scale,Choice,4,1732392242680,5efea1f363271c3b76d4c9ed,NULL
1732392294,d6898ede12be793e9dee0beb65ca0c6b,PennController,3,0,instructions,NULL,PennController,1,_Trial_,End,1732392244130,5efea1f363271c3b76d4c9ed,NULL
1732392294,d6898ede12be793e9dee0beb65ca0c6b,PennController,4,0,exp-start,NULL,PennController,2,_Trial_,Start,1732392244132,5efea1f363271c3b76d4c9ed,NULL
1732392294,d6898ede12be793e9dee0beb65ca0c6b,PennController,4,0,exp-start,NULL,PennController,2,_Header_,Start,1732392244132,5efea1f363271c3b76d4c9ed,NULL
1732392294,d6898ede12be793e9dee0beb65ca0c6b,PennController,4,0,exp-start,NULL,PennController,2,_Header_,End,1732392244132,5efea1f363271c3b76d4c9ed,NULL
1732392294,d6898ede12be793e9dee0beb65ca0c6b,PennController,4,0,exp-start,NULL,PennController,2,_Trial_,End,1732392248045,5efea1f363271c3b76d4c9ed,NULL
# 14. Item.
# 15. Noun_TR.
# 16. Noun_EN.
# 17. Category_TR.
# 18. Category_EN.
# 19. Image1.
# 20. Group.
# 21. Condition.
# 22. Comments.
1732392294,d6898ede12be793e9dee0beb65ca0c6b,PennController,15,0,ratings,NULL,PennController,14,_Trial_,Start,1732392248047,5efea1f363271c3b76d4c9ed,11, masa,table, mobilya,furniture,table1.jpeg,A,1,NULL
1732392294,d6898ede12be793e9dee0beb65ca0c6b,PennController,15,0,ratings,NULL,PennController,14,_Header_,Start,1732392248047,5efea1f363271c3b76d4c9ed,11, masa,table, mobilya,furniture,table1.jpeg,A,1,NULL
1732392294,d6898ede12be793e9dee0beb65ca0c6b,PennController,15,0,ratings,NULL,PennController,14,_Header_,End,1732392248047,5efea1f363271c3b76d4c9ed,11, masa,table, mobilya,furniture,table1.jpeg,A,1,NULL
1732392294,d6898ede12be793e9dee0beb65ca0c6b,PennController,15,0,ratings,NULL,Scale,scale,Choice,7,1732392250230,5efea1f363271c3b76d4c9ed,11, masa,table, mobilya,furniture,table1.jpeg,A,1,NULL
1732392294,d6898ede12be793e9dee0beb65ca0c6b,PennController,15,0,ratings,NULL,PennController,14,_Trial_,End,1732392250937,5efea1f363271c3b76d4c9ed,11, masa,table, mobilya,furniture,table1.jpeg,A,1,NULL
1732392294,d6898ede12be793e9dee0beb65ca0c6b,PennController,11,0,ratings,NULL,PennController,10,_Trial_,Start,1732392250939,5efea1f363271c3b76d4c9ed,7, palto,coat, giysi,clothes,coat1.jpeg,A,1,NULL
1732392294,d6898ede12be793e9dee0beb65ca0c6b,PennController,11,0,ratings,NULL,PennController,10,_Header_,Start,1732392250939,5efea1f363271c3b76d4c9ed,7, palto,coat, giysi,clothes,coat1.jpeg,A,1,NULL
1732392294,d6898ede12be793e9dee0beb65ca0c6b,PennController,11,0,ratings,NULL,PennController,10,_Header_,End,1732392250939,5efea1f363271c3b76d4c9ed,7, palto,coat, giysi,clothes,coat1.jpeg,A,1,NULL
1732392294,d6898ede12be793e9dee0beb65ca0c6b,PennController,11,0,ratings,NULL,Scale,scale,Choice,3,1732392253264,5efea1f363271c3b76d4c9ed,7, palto,coat, giysi,clothes,coat1.jpeg,A,1,NULL
1732392294,d6898ede12be793e9dee0beb65ca0c6b,PennController,11,0,ratings,NULL,PennController,10,_Trial_,End,1732392253967,5efea1f363271c3b76d4c9ed,7, palto,coat, giysi,clothes,coat1.jpeg,A,1,NULL
1732392294,d6898ede12be793e9dee0beb65ca0c6b,PennController,10,0,ratings,NULL,PennController,9,_Trial_,Start,1732392253968,5efea1f363271c3b76d4c9ed,6, otobüs,bus, araç,vehicles,bus2.jpeg,A,2,NULL
1732392294,d6898ede12be793e9dee0beb65ca0c6b,PennController,10,0,ratings,NULL,PennController,9,_Header_,Start,1732392253968,5efea1f363271c3b76d4c9ed,6, otobüs,bus, araç,vehicles,bus2.jpeg,A,2,NULL
1732392294,d6898ede12be793e9dee0beb65ca0c6b,PennController,10,0,ratings,NULL,PennController,9,_Header_,End,1732392253968,5efea1f363271c3b76d4c9ed,6, otobüs,bus, araç,vehicles,bus2.jpeg,A,2,NULL
1732392294,d6898ede12be793e9dee0beb65ca0c6b,PennController,10,0,ratings,NULL,Scale,scale,Choice,2,1732392257742,5efea1f363271c3b76d4c9ed,6, otobüs,bus, araç,vehicles,bus2.jpeg,A,2,NULL
1732392294,d6898ede12be793e9dee0beb65ca0c6b,PennController,10,0,ratings,NULL,PennController,9,_Trial_,End,1732392258445,5efea1f363271c3b76d4c9ed,6, otobüs,bus, araç,vehicles,bus2.jpeg,A,2,NULL
1732392294,d6898ede12be793e9dee0beb65ca0c6b,PennController,5,0,ratings,NULL,PennController,4,_Trial_,Start,1732392258447,5efea1f363271c3b76d4c9ed,1, kek,cake, unlu mamül,baked goods,cake1.jpeg,A,1,NULL
1732392294,d6898ede12be793e9dee0beb65ca0c6b,PennController,5,0,ratings,NULL,PennController,4,_Header_,Start,1732392258447,5efea1f363271c3b76d4c9ed,1, kek,cake, unlu mamül,baked goods,cake1.jpeg,A,1,NULL
1732392294,d6898ede12be793e9dee0beb65ca0c6b,PennController,5,0,ratings,NULL,PennController,4,_Header_,End,1732392258447,5efea1f363271c3b76d4c9ed,1, kek,cake, unlu mamül,baked goods,cake1.jpeg,A,1,NULL
1732392294,d6898ede12be793e9dee0beb65ca0c6b,PennController,5,0,ratings,NULL,Scale,scale,Choice,5,1732392260248,5efea1f363271c3b76d4c9ed,1, kek,cake, unlu mamül,baked goods,cake1.jpeg,A,1,NULL
1732392294,d6898ede12be793e9dee0beb65ca0c6b,PennController,5,0,ratings,NULL,PennController,4,_Trial_,End,1732392260952,5efea1f363271c3b76d4c9ed,1, kek,cake, unlu mamül,baked goods,cake1.jpeg,A,1,NULL
1732392294,d6898ede12be793e9dee0beb65ca0c6b,PennController,14,0,ratings,NULL,PennController,13,_Trial_,Start,1732392260954,5efea1f363271c3b76d4c9ed,10, sandalye,chair, mobilya,furniture,chair2.jpeg,A,2,NULL
1732392294,d6898ede12be793e9dee0beb65ca0c6b,PennController,14,0,ratings,NULL,PennController,13,_Header_,Start,1732392260954,5efea1f363271c3b76d4c9ed,10, sandalye,chair, mobilya,furniture,chair2.jpeg,A,2,NULL
1732392294,d6898ede12be793e9dee0beb65ca0c6b,PennController,14,0,ratings,NULL,PennController,13,_Header_,End,1732392260954,5efea1f363271c3b76d4c9ed,10, sandalye,chair, mobilya,furniture,chair2.jpeg,A,2,NULL
1732392294,d6898ede12be793e9dee0beb65ca0c6b,PennController,14,0,ratings,NULL,Scale,scale,Choice,1,1732392262934,5efea1f363271c3b76d4c9ed,10, sandalye,chair, mobilya,furniture,chair2.jpeg,A,2,NULL
1732392294,d6898ede12be793e9dee0beb65ca0c6b,PennController,14,0,ratings,NULL,PennController,13,_Trial_,End,1732392263638,5efea1f363271c3b76d4c9ed,10, sandalye,chair, mobilya,furniture,chair2.jpeg,A,2,NULL
1732392294,d6898ede12be793e9dee0beb65ca0c6b,PennController,20,0,ratings,NULL,PennController,19,_Trial_,Start,1732392263640,5efea1f363271c3b76d4c9ed,16, at,horse, hayvan,animals,horse2.jpeg,A,2,NULL
1732392294,d6898ede12be793e9dee0beb65ca0c6b,PennController,20,0,ratings,NULL,PennController,19,_Header_,Start,1732392263640,5efea1f363271c3b76d4c9ed,16, at,horse, hayvan,animals,horse2.jpeg,A,2,NULL
1732392294,d6898ede12be793e9dee0beb65ca0c6b,PennController,20,0,ratings,NULL,PennController,19,_Header_,End,1732392263640,5efea1f363271c3b76d4c9ed,16, at,horse, hayvan,animals,horse2.jpeg,A,2,NULL
1732392294,d6898ede12be793e9dee0beb65ca0c6b,PennController,20,0,ratings,NULL,Scale,scale,Choice,1,1732392266020,5efea1f363271c3b76d4c9ed,16, at,horse, hayvan,animals,horse2.jpeg,A,2,NULL
1732392294,d6898ede12be793e9dee0beb65ca0c6b,PennController,20,0,ratings,NULL,PennController,19,_Trial_,End,1732392266727,5efea1f363271c3b76d4c9ed,16, at,horse, hayvan,animals,horse2.jpeg,A,2,NULL
1732392294,d6898ede12be793e9dee0beb65ca0c6b,PennController,12,0,ratings,NULL,PennController,11,_Trial_,Start,1732392266728,5efea1f363271c3b76d4c9ed,8, ayakkabı,shoe, giysi,clothes,shoe2.jpeg,A,2,NULL
1732392294,d6898ede12be793e9dee0beb65ca0c6b,PennController,12,0,ratings,NULL,PennController,11,_Header_,Start,1732392266728,5efea1f363271c3b76d4c9ed,8, ayakkabı,shoe, giysi,clothes,shoe2.jpeg,A,2,NULL
1732392294,d6898ede12be793e9dee0beb65ca0c6b,PennController,12,0,ratings,NULL,PennController,11,_Header_,End,1732392266728,5efea1f363271c3b76d4c9ed,8, ayakkabı,shoe, giysi,clothes,shoe2.jpeg,A,2,NULL
1732392294,d6898ede12be793e9dee0beb65ca0c6b,PennController,12,0,ratings,NULL,Scale,scale,Choice,2,1732392268375,5efea1f363271c3b76d4c9ed,8, ayakkabı,shoe, giysi,clothes,shoe2.jpeg,A,2,NULL
1732392294,d6898ede12be793e9dee0beb65ca0c6b,PennController,12,0,ratings,NULL,PennController,11,_Trial_,End,1732392269080,5efea1f363271c3b76d4c9ed,8, ayakkabı,shoe, giysi,clothes,shoe2.jpeg,A,2,NULL
1732392294,d6898ede12be793e9dee0beb65ca0c6b,PennController,17,0,ratings,NULL,PennController,16,_Trial_,Start,1732392269082,5efea1f363271c3b76d4c9ed,13, kuş,bird, hayvan,animals,bird1.jpeg,A,1,NULL
1732392294,d6898ede12be793e9dee0beb65ca0c6b,PennController,17,0,ratings,NULL,PennController,16,_Header_,Start,1732392269082,5efea1f363271c3b76d4c9ed,13, kuş,bird, hayvan,animals,bird1.jpeg,A,1,NULL
1732392294,d6898ede12be793e9dee0beb65ca0c6b,PennController,17,0,ratings,NULL,PennController,16,_Header_,End,1732392269082,5efea1f363271c3b76d4c9ed,13, kuş,bird, hayvan,animals,bird1.jpeg,A,1,NULL
1732392294,d6898ede12be793e9dee0beb65ca0c6b,PennController,17,0,ratings,NULL,Scale,scale,Choice,7,1732392270622,5efea1f363271c3b76d4c9ed,13, kuş,bird, hayvan,animals,bird1.jpeg,A,1,NULL
1732392294,d6898ede12be793e9dee0beb65ca0c6b,PennController,17,0,ratings,NULL,PennController,16,_Trial_,End,1732392271330,5efea1f363271c3b76d4c9ed,13, kuş,bird, hayvan,animals,bird1.jpeg,A,1,NULL
1732392294,d6898ede12be793e9dee0beb65ca0c6b,PennController,9,0,ratings,NULL,PennController,8,_Trial_,Start,1732392271332,5efea1f363271c3b76d4c9ed,5, kamyon,truck, araç,vehicles,truck1.jpeg,A,1,NULL
1732392294,d6898ede12be793e9dee0beb65ca0c6b,PennController,9,0,ratings,NULL,PennController,8,_Header_,Start,1732392271332,5efea1f363271c3b76d4c9ed,5, kamyon,truck, araç,vehicles,truck1.jpeg,A,1,NULL
1732392294,d6898ede12be793e9dee0beb65ca0c6b,PennController,9,0,ratings,NULL,PennController,8,_Header_,End,1732392271332,5efea1f363271c3b76d4c9ed,5, kamyon,truck, araç,vehicles,truck1.jpeg,A,1,NULL
1732392294,d6898ede12be793e9dee0beb65ca0c6b,PennController,9,0,ratings,NULL,Scale,scale,Choice,6,1732392273861,5efea1f363271c3b76d4c9ed,5, kamyon,truck, araç,vehicles,truck1.jpeg,A,1,NULL
1732392294,d6898ede12be793e9dee0beb65ca0c6b,PennController,9,0,ratings,NULL,PennController,8,_Trial_,End,1732392274570,5efea1f363271c3b76d4c9ed,5, kamyon,truck, araç,vehicles,truck1.jpeg,A,1,NULL
1732392294,d6898ede12be793e9dee0beb65ca0c6b,PennController,19,0,ratings,NULL,PennController,18,_Trial_,Start,1732392274572,5efea1f363271c3b76d4c9ed,15, balık,fish, hayvan,animals,fish1.jpeg,A,1,NULL
1732392294,d6898ede12be793e9dee0beb65ca0c6b,PennController,19,0,ratings,NULL,PennController,18,_Header_,Start,1732392274572,5efea1f363271c3b76d4c9ed,15, balık,fish, hayvan,animals,fish1.jpeg,A,1,NULL
1732392294,d6898ede12be793e9dee0beb65ca0c6b,PennController,19,0,ratings,NULL,PennController,18,_Header_,End,1732392274572,5efea1f363271c3b76d4c9ed,15, balık,fish, hayvan,animals,fish1.jpeg,A,1,NULL
1732392294,d6898ede12be793e9dee0beb65ca0c6b,PennController,19,0,ratings,NULL,Scale,scale,Choice,6,1732392276597,5efea1f363271c3b76d4c9ed,15, balık,fish, hayvan,animals,fish1.jpeg,A,1,NULL
1732392294,d6898ede12be793e9dee0beb65ca0c6b,PennController,19,0,ratings,NULL,PennController,18,_Trial_,End,1732392277303,5efea1f363271c3b76d4c9ed,15, balık,fish, hayvan,animals,fish1.jpeg,A,1,NULL
1732392294,d6898ede12be793e9dee0beb65ca0c6b,PennController,6,0,ratings,NULL,PennController,5,_Trial_,Start,1732392277304,5efea1f363271c3b76d4c9ed,2, kurabiye,cookie, unlu mamül,baked goods,cookie2.jpeg,A,2,NULL
1732392294,d6898ede12be793e9dee0beb65ca0c6b,PennController,6,0,ratings,NULL,PennController,5,_Header_,Start,1732392277304,5efea1f363271c3b76d4c9ed,2, kurabiye,cookie, unlu mamül,baked goods,cookie2.jpeg,A,2,NULL
1732392294,d6898ede12be793e9dee0beb65ca0c6b,PennController,6,0,ratings,NULL,PennController,5,_Header_,End,1732392277304,5efea1f363271c3b76d4c9ed,2, kurabiye,cookie, unlu mamül,baked goods,cookie2.jpeg,A,2,NULL
1732392294,d6898ede12be793e9dee0beb65ca0c6b,PennController,6,0,ratings,NULL,Scale,scale,Choice,3,1732392279367,5efea1f363271c3b76d4c9ed,2, kurabiye,cookie, unlu mamül,baked goods,cookie2.jpeg,A,2,NULL
1732392294,d6898ede12be793e9dee0beb65ca0c6b,PennController,6,0,ratings,NULL,PennController,5,_Trial_,End,1732392280073,5efea1f363271c3b76d4c9ed,2, kurabiye,cookie, unlu mamül,baked goods,cookie2.jpeg,A,2,NULL
1732392294,d6898ede12be793e9dee0beb65ca0c6b,PennController,13,0,ratings,NULL,PennController,12,_Trial_,Start,1732392280074,5efea1f363271c3b76d4c9ed,9, şapka,hat, giysi,clothes,hat1.jpeg,A,1,NULL
1732392294,d6898ede12be793e9dee0beb65ca0c6b,PennController,13,0,ratings,NULL,PennController,12,_Header_,Start,1732392280074,5efea1f363271c3b76d4c9ed,9, şapka,hat, giysi,clothes,hat1.jpeg,A,1,NULL
1732392294,d6898ede12be793e9dee0beb65ca0c6b,PennController,13,0,ratings,NULL,PennController,12,_Header_,End,1732392280074,5efea1f363271c3b76d4c9ed,9, şapka,hat, giysi,clothes,hat1.jpeg,A,1,NULL
1732392294,d6898ede12be793e9dee0beb65ca0c6b,PennController,13,0,ratings,NULL,Scale,scale,Choice,7,1732392281905,5efea1f363271c3b76d4c9ed,9, şapka,hat, giysi,clothes,hat1.jpeg,A,1,NULL
1732392294,d6898ede12be793e9dee0beb65ca0c6b,PennController,13,0,ratings,NULL,PennController,12,_Trial_,End,1732392282610,5efea1f363271c3b76d4c9ed,9, şapka,hat, giysi,clothes,hat1.jpeg,A,1,NULL
1732392294,d6898ede12be793e9dee0beb65ca0c6b,PennController,16,0,ratings,NULL,PennController,15,_Trial_,Start,1732392282611,5efea1f363271c3b76d4c9ed,12, kanepe,couch, mobilya,furniture,couch2.jpeg,A,2,NULL
1732392294,d6898ede12be793e9dee0beb65ca0c6b,PennController,16,0,ratings,NULL,PennController,15,_Header_,Start,1732392282611,5efea1f363271c3b76d4c9ed,12, kanepe,couch, mobilya,furniture,couch2.jpeg,A,2,NULL
1732392294,d6898ede12be793e9dee0beb65ca0c6b,PennController,16,0,ratings,NULL,PennController,15,_Header_,End,1732392282611,5efea1f363271c3b76d4c9ed,12, kanepe,couch, mobilya,furniture,couch2.jpeg,A,2,NULL
1732392294,d6898ede12be793e9dee0beb65ca0c6b,PennController,16,0,ratings,NULL,Scale,scale,Choice,3,1732392284951,5efea1f363271c3b76d4c9ed,12, kanepe,couch, mobilya,furniture,couch2.jpeg,A,2,NULL
1732392294,d6898ede12be793e9dee0beb65ca0c6b,PennController,16,0,ratings,NULL,PennController,15,_Trial_,End,1732392285661,5efea1f363271c3b76d4c9ed,12, kanepe,couch, mobilya,furniture,couch2.jpeg,A,2,NULL
1732392294,d6898ede12be793e9dee0beb65ca0c6b,PennController,8,0,ratings,NULL,PennController,7,_Trial_,Start,1732392285663,5efea1f363271c3b76d4c9ed,4, araba,car, araç,vehicles,car2.jpeg,A,2,NULL
1732392294,d6898ede12be793e9dee0beb65ca0c6b,PennController,8,0,ratings,NULL,PennController,7,_Header_,Start,1732392285663,5efea1f363271c3b76d4c9ed,4, araba,car, araç,vehicles,car2.jpeg,A,2,NULL
1732392294,d6898ede12be793e9dee0beb65ca0c6b,PennController,8,0,ratings,NULL,PennController,7,_Header_,End,1732392285663,5efea1f363271c3b76d4c9ed,4, araba,car, araç,vehicles,car2.jpeg,A,2,NULL
1732392294,d6898ede12be793e9dee0beb65ca0c6b,PennController,8,0,ratings,NULL,Scale,scale,Choice,1,1732392287879,5efea1f363271c3b76d4c9ed,4, araba,car, araç,vehicles,car2.jpeg,A,2,NULL
1732392294,d6898ede12be793e9dee0beb65ca0c6b,PennController,8,0,ratings,NULL,PennController,7,_Trial_,End,1732392288589,5efea1f363271c3b76d4c9ed,4, araba,car, araç,vehicles,car2.jpeg,A,2,NULL
1732392294,d6898ede12be793e9dee0beb65ca0c6b,PennController,18,0,ratings,NULL,PennController,17,_Trial_,Start,1732392288591,5efea1f363271c3b76d4c9ed,14, köpek,dog, hayvan,animals,dog2.jpeg,A,2,NULL
1732392294,d6898ede12be793e9dee0beb65ca0c6b,PennController,18,0,ratings,NULL,PennController,17,_Header_,Start,1732392288591,5efea1f363271c3b76d4c9ed,14, köpek,dog, hayvan,animals,dog2.jpeg,A,2,NULL
1732392294,d6898ede12be793e9dee0beb65ca0c6b,PennController,18,0,ratings,NULL,PennController,17,_Header_,End,1732392288591,5efea1f363271c3b76d4c9ed,14, köpek,dog, hayvan,animals,dog2.jpeg,A,2,NULL
1732392294,d6898ede12be793e9dee0beb65ca0c6b,PennController,18,0,ratings,NULL,Scale,scale,Choice,2,1732392291075,5efea1f363271c3b76d4c9ed,14, köpek,dog, hayvan,animals,dog2.jpeg,A,2,NULL
1732392294,d6898ede12be793e9dee0beb65ca0c6b,PennController,18,0,ratings,NULL,PennController,17,_Trial_,End,1732392291779,5efea1f363271c3b76d4c9ed,14, köpek,dog, hayvan,animals,dog2.jpeg,A,2,NULL
1732392294,d6898ede12be793e9dee0beb65ca0c6b,PennController,7,0,ratings,NULL,PennController,6,_Trial_,Start,1732392291780,5efea1f363271c3b76d4c9ed,3, ekmek,bread, unlu mamül,baked goods,bread1.jpeg,A,1,NULL
1732392294,d6898ede12be793e9dee0beb65ca0c6b,PennController,7,0,ratings,NULL,PennController,6,_Header_,Start,1732392291780,5efea1f363271c3b76d4c9ed,3, ekmek,bread, unlu mamül,baked goods,bread1.jpeg,A,1,NULL
1732392294,d6898ede12be793e9dee0beb65ca0c6b,PennController,7,0,ratings,NULL,PennController,6,_Header_,End,1732392291780,5efea1f363271c3b76d4c9ed,3, ekmek,bread, unlu mamül,baked goods,bread1.jpeg,A,1,NULL
1732392294,d6898ede12be793e9dee0beb65ca0c6b,PennController,7,0,ratings,NULL,Scale,scale,Choice,4,1732392293949,5efea1f363271c3b76d4c9ed,3, ekmek,bread, unlu mamül,baked goods,bread1.jpeg,A,1,NULL
1732392294,d6898ede12be793e9dee0beb65ca0c6b,PennController,7,0,ratings,NULL,PennController,6,_Trial_,End,1732392294657,5efea1f363271c3b76d4c9ed,3, ekmek,bread, unlu mamül,baked goods,bread1.jpeg,A,1,NULL
#
# Results on Sat, 23 Nov 2024 20:15:15 GMT
# USER AGENT: Mozilla/5.0 (Macintosh; Intel Mac OS X 10_15_7) AppleWebKit/537.36 (KHTML, like Gecko) Chrome/128.0.0.0 Safari/537.36
# Design number was non-random = 7
#
# Columns below this comment are as follows:
# 1. Results reception time.
# 2. MD5 hash of participant's IP address.
# 3. Controller name.
# 4. Order number of item.
# 5. Inner element number.
# 6. Label.
# 7. Latin Square Group.
# 8. PennElementType.
# 9. PennElementName.
# 10. Parameter.
# 11. Value.
# 12. EventTime.
# 13. PROLIFIC_ID.
# 14. Comments.
1732392915,cf77a94786e00e77e1cf01729296cc7a,PennController,2,0,consent,NULL,PennController,0,_Trial_,Start,1732392827967,5fcbd87e70a25c99595f012d,NULL
1732392915,cf77a94786e00e77e1cf01729296cc7a,PennController,2,0,consent,NULL,PennController,0,_Header_,Start,1732392827967,5fcbd87e70a25c99595f012d,NULL
1732392915,cf77a94786e00e77e1cf01729296cc7a,PennController,2,0,consent,NULL,PennController,0,_Header_,End,1732392827968,5fcbd87e70a25c99595f012d,NULL
1732392915,cf77a94786e00e77e1cf01729296cc7a,PennController,2,0,consent,NULL,PennController,0,_Trial_,End,1732392840703,5fcbd87e70a25c99595f012d,NULL
1732392915,cf77a94786e00e77e1cf01729296cc7a,PennController,3,0,instructions,NULL,PennController,1,_Trial_,Start,1732392840704,5fcbd87e70a25c99595f012d,NULL
1732392915,cf77a94786e00e77e1cf01729296cc7a,PennController,3,0,instructions,NULL,PennController,1,_Header_,Start,1732392840704,5fcbd87e70a25c99595f012d,NULL
1732392915,cf77a94786e00e77e1cf01729296cc7a,PennController,3,0,instructions,NULL,PennController,1,_Header_,End,1732392840704,5fcbd87e70a25c99595f012d,NULL
1732392915,cf77a94786e00e77e1cf01729296cc7a,PennController,3,0,instructions,NULL,Scale,scale,Choice,6,1732392850461,5fcbd87e70a25c99595f012d,NULL
1732392915,cf77a94786e00e77e1cf01729296cc7a,PennController,3,0,instructions,NULL,PennController,1,_Trial_,End,1732392852029,5fcbd87e70a25c99595f012d,NULL
1732392915,cf77a94786e00e77e1cf01729296cc7a,PennController,4,0,exp-start,NULL,PennController,2,_Trial_,Start,1732392852030,5fcbd87e70a25c99595f012d,NULL
1732392915,cf77a94786e00e77e1cf01729296cc7a,PennController,4,0,exp-start,NULL,PennController,2,_Header_,Start,1732392852030,5fcbd87e70a25c99595f012d,NULL
1732392915,cf77a94786e00e77e1cf01729296cc7a,PennController,4,0,exp-start,NULL,PennController,2,_Header_,End,1732392852030,5fcbd87e70a25c99595f012d,NULL
1732392915,cf77a94786e00e77e1cf01729296cc7a,PennController,4,0,exp-start,NULL,PennController,2,_Trial_,End,1732392857260,5fcbd87e70a25c99595f012d,NULL
# 14. Item.
# 15. Noun_TR.
# 16. Noun_EN.
# 17. Category_TR.
# 18. Category_EN.
# 19. Image1.
# 20. Group.
# 21. Condition.
# 22. Comments.
1732392915,cf77a94786e00e77e1cf01729296cc7a,PennController,8,0,ratings,NULL,PennController,7,_Trial_,Start,1732392857261,5fcbd87e70a25c99595f012d,4, araba,car, araç,vehicles,car1.jpeg,B,1,NULL
1732392915,cf77a94786e00e77e1cf01729296cc7a,PennController,8,0,ratings,NULL,PennController,7,_Header_,Start,1732392857261,5fcbd87e70a25c99595f012d,4, araba,car, araç,vehicles,car1.jpeg,B,1,NULL
1732392915,cf77a94786e00e77e1cf01729296cc7a,PennController,8,0,ratings,NULL,PennController,7,_Header_,End,1732392857261,5fcbd87e70a25c99595f012d,4, araba,car, araç,vehicles,car1.jpeg,B,1,NULL
1732392915,cf77a94786e00e77e1cf01729296cc7a,PennController,8,0,ratings,NULL,Scale,scale,Choice,6,1732392860690,5fcbd87e70a25c99595f012d,4, araba,car, araç,vehicles,car1.jpeg,B,1,NULL
1732392915,cf77a94786e00e77e1cf01729296cc7a,PennController,8,0,ratings,NULL,PennController,7,_Trial_,End,1732392861396,5fcbd87e70a25c99595f012d,4, araba,car, araç,vehicles,car1.jpeg,B,1,NULL
1732392915,cf77a94786e00e77e1cf01729296cc7a,PennController,5,0,ratings,NULL,PennController,4,_Trial_,Start,1732392861398,5fcbd87e70a25c99595f012d,1, kek,cake, unlu mamül,baked goods,cake2.jpeg,B,2,NULL
1732392915,cf77a94786e00e77e1cf01729296cc7a,PennController,5,0,ratings,NULL,PennController,4,_Header_,Start,1732392861398,5fcbd87e70a25c99595f012d,1, kek,cake, unlu mamül,baked goods,cake2.jpeg,B,2,NULL
1732392915,cf77a94786e00e77e1cf01729296cc7a,PennController,5,0,ratings,NULL,PennController,4,_Header_,End,1732392861398,5fcbd87e70a25c99595f012d,1, kek,cake, unlu mamül,baked goods,cake2.jpeg,B,2,NULL
1732392915,cf77a94786e00e77e1cf01729296cc7a,PennController,5,0,ratings,NULL,Scale,scale,Choice,2,1732392867105,5fcbd87e70a25c99595f012d,1, kek,cake, unlu mamül,baked goods,cake2.jpeg,B,2,NULL
1732392915,cf77a94786e00e77e1cf01729296cc7a,PennController,5,0,ratings,NULL,PennController,4,_Trial_,End,1732392867811,5fcbd87e70a25c99595f012d,1, kek,cake, unlu mamül,baked goods,cake2.jpeg,B,2,NULL
1732392915,cf77a94786e00e77e1cf01729296cc7a,PennController,15,0,ratings,NULL,PennController,14,_Trial_,Start,1732392867813,5fcbd87e70a25c99595f012d,11, masa,table, mobilya,furniture,table2.jpeg,B,2,NULL
1732392915,cf77a94786e00e77e1cf01729296cc7a,PennController,15,0,ratings,NULL,PennController,14,_Header_,Start,1732392867813,5fcbd87e70a25c99595f012d,11, masa,table, mobilya,furniture,table2.jpeg,B,2,NULL
1732392915,cf77a94786e00e77e1cf01729296cc7a,PennController,15,0,ratings,NULL,PennController,14,_Header_,End,1732392867813,5fcbd87e70a25c99595f012d,11, masa,table, mobilya,furniture,table2.jpeg,B,2,NULL
1732392915,cf77a94786e00e77e1cf01729296cc7a,PennController,15,0,ratings,NULL,Scale,scale,Choice,5,1732392870254,5fcbd87e70a25c99595f012d,11, masa,table, mobilya,furniture,table2.jpeg,B,2,NULL
1732392915,cf77a94786e00e77e1cf01729296cc7a,PennController,15,0,ratings,NULL,PennController,14,_Trial_,End,1732392870959,5fcbd87e70a25c99595f012d,11, masa,table, mobilya,furniture,table2.jpeg,B,2,NULL
1732392915,cf77a94786e00e77e1cf01729296cc7a,PennController,11,0,ratings,NULL,PennController,10,_Trial_,Start,1732392870960,5fcbd87e70a25c99595f012d,7, palto,coat, giysi,clothes,coat2.jpeg,B,2,NULL
1732392915,cf77a94786e00e77e1cf01729296cc7a,PennController,11,0,ratings,NULL,PennController,10,_Header_,Start,1732392870960,5fcbd87e70a25c99595f012d,7, palto,coat, giysi,clothes,coat2.jpeg,B,2,NULL
1732392915,cf77a94786e00e77e1cf01729296cc7a,PennController,11,0,ratings,NULL,PennController,10,_Header_,End,1732392870961,5fcbd87e70a25c99595f012d,7, palto,coat, giysi,clothes,coat2.jpeg,B,2,NULL
1732392915,cf77a94786e00e77e1cf01729296cc7a,PennController,11,0,ratings,NULL,Scale,scale,Choice,3,1732392872583,5fcbd87e70a25c99595f012d,7, palto,coat, giysi,clothes,coat2.jpeg,B,2,NULL
1732392915,cf77a94786e00e77e1cf01729296cc7a,PennController,11,0,ratings,NULL,PennController,10,_Trial_,End,1732392873289,5fcbd87e70a25c99595f012d,7, palto,coat, giysi,clothes,coat2.jpeg,B,2,NULL
1732392915,cf77a94786e00e77e1cf01729296cc7a,PennController,20,0,ratings,NULL,PennController,19,_Trial_,Start,1732392873291,5fcbd87e70a25c99595f012d,16, at,horse, hayvan,animals,horse1.jpeg,B,1,NULL
1732392915,cf77a94786e00e77e1cf01729296cc7a,PennController,20,0,ratings,NULL,PennController,19,_Header_,Start,1732392873291,5fcbd87e70a25c99595f012d,16, at,horse, hayvan,animals,horse1.jpeg,B,1,NULL
1732392915,cf77a94786e00e77e1cf01729296cc7a,PennController,20,0,ratings,NULL,PennController,19,_Header_,End,1732392873291,5fcbd87e70a25c99595f012d,16, at,horse, hayvan,animals,horse1.jpeg,B,1,NULL
1732392915,cf77a94786e00e77e1cf01729296cc7a,PennController,20,0,ratings,NULL,Scale,scale,Choice,7,1732392876721,5fcbd87e70a25c99595f012d,16, at,horse, hayvan,animals,horse1.jpeg,B,1,NULL
1732392915,cf77a94786e00e77e1cf01729296cc7a,PennController,20,0,ratings,NULL,PennController,19,_Trial_,End,1732392877427,5fcbd87e70a25c99595f012d,16, at,horse, hayvan,animals,horse1.jpeg,B,1,NULL
1732392915,cf77a94786e00e77e1cf01729296cc7a,PennController,9,0,ratings,NULL,PennController,8,_Trial_,Start,1732392877428,5fcbd87e70a25c99595f012d,5, kamyon,truck, araç,vehicles,truck2.jpeg,B,2,NULL
1732392915,cf77a94786e00e77e1cf01729296cc7a,PennController,9,0,ratings,NULL,PennController,8,_Header_,Start,1732392877428,5fcbd87e70a25c99595f012d,5, kamyon,truck, araç,vehicles,truck2.jpeg,B,2,NULL
1732392915,cf77a94786e00e77e1cf01729296cc7a,PennController,9,0,ratings,NULL,PennController,8,_Header_,End,1732392877428,5fcbd87e70a25c99595f012d,5, kamyon,truck, araç,vehicles,truck2.jpeg,B,2,NULL
1732392915,cf77a94786e00e77e1cf01729296cc7a,PennController,9,0,ratings,NULL,Scale,scale,Choice,2,1732392882423,5fcbd87e70a25c99595f012d,5, kamyon,truck, araç,vehicles,truck2.jpeg,B,2,NULL
1732392915,cf77a94786e00e77e1cf01729296cc7a,PennController,9,0,ratings,NULL,PennController,8,_Trial_,End,1732392883132,5fcbd87e70a25c99595f012d,5, kamyon,truck, araç,vehicles,truck2.jpeg,B,2,NULL
1732392915,cf77a94786e00e77e1cf01729296cc7a,PennController,7,0,ratings,NULL,PennController,6,_Trial_,Start,1732392883133,5fcbd87e70a25c99595f012d,3, ekmek,bread, unlu mamül,baked goods,bread2.jpeg,B,2,NULL
1732392915,cf77a94786e00e77e1cf01729296cc7a,PennController,7,0,ratings,NULL,PennController,6,_Header_,Start,1732392883133,5fcbd87e70a25c99595f012d,3, ekmek,bread, unlu mamül,baked goods,bread2.jpeg,B,2,NULL
1732392915,cf77a94786e00e77e1cf01729296cc7a,PennController,7,0,ratings,NULL,PennController,6,_Header_,End,1732392883134,5fcbd87e70a25c99595f012d,3, ekmek,bread, unlu mamül,baked goods,bread2.jpeg,B,2,NULL
1732392915,cf77a94786e00e77e1cf01729296cc7a,PennController,7,0,ratings,NULL,Scale,scale,Choice,1,1732392886865,5fcbd87e70a25c99595f012d,3, ekmek,bread, unlu mamül,baked goods,bread2.jpeg,B,2,NULL
1732392915,cf77a94786e00e77e1cf01729296cc7a,PennController,7,0,ratings,NULL,PennController,6,_Trial_,End,1732392887575,5fcbd87e70a25c99595f012d,3, ekmek,bread, unlu mamül,baked goods,bread2.jpeg,B,2,NULL
1732392915,cf77a94786e00e77e1cf01729296cc7a,PennController,18,0,ratings,NULL,PennController,17,_Trial_,Start,1732392887576,5fcbd87e70a25c99595f012d,14, köpek,dog, hayvan,animals,dog1.jpeg,B,1,NULL
1732392915,cf77a94786e00e77e1cf01729296cc7a,PennController,18,0,ratings,NULL,PennController,17,_Header_,Start,1732392887576,5fcbd87e70a25c99595f012d,14, köpek,dog, hayvan,animals,dog1.jpeg,B,1,NULL
1732392915,cf77a94786e00e77e1cf01729296cc7a,PennController,18,0,ratings,NULL,PennController,17,_Header_,End,1732392887576,5fcbd87e70a25c99595f012d,14, köpek,dog, hayvan,animals,dog1.jpeg,B,1,NULL
1732392915,cf77a94786e00e77e1cf01729296cc7a,PennController,18,0,ratings,NULL,Scale,scale,Choice,7,1732392891313,5fcbd87e70a25c99595f012d,14, köpek,dog, hayvan,animals,dog1.jpeg,B,1,NULL
1732392915,cf77a94786e00e77e1cf01729296cc7a,PennController,18,0,ratings,NULL,PennController,17,_Trial_,End,1732392892020,5fcbd87e70a25c99595f012d,14, köpek,dog, hayvan,animals,dog1.jpeg,B,1,NULL
1732392915,cf77a94786e00e77e1cf01729296cc7a,PennController,10,0,ratings,NULL,PennController,9,_Trial_,Start,1732392892021,5fcbd87e70a25c99595f012d,6, otobüs,bus, araç,vehicles,bus1.jpeg,B,1,NULL
1732392915,cf77a94786e00e77e1cf01729296cc7a,PennController,10,0,ratings,NULL,PennController,9,_Header_,Start,1732392892021,5fcbd87e70a25c99595f012d,6, otobüs,bus, araç,vehicles,bus1.jpeg,B,1,NULL
1732392915,cf77a94786e00e77e1cf01729296cc7a,PennController,10,0,ratings,NULL,PennController,9,_Header_,End,1732392892022,5fcbd87e70a25c99595f012d,6, otobüs,bus, araç,vehicles,bus1.jpeg,B,1,NULL
1732392915,cf77a94786e00e77e1cf01729296cc7a,PennController,10,0,ratings,NULL,Scale,scale,Choice,6,1732392894447,5fcbd87e70a25c99595f012d,6, otobüs,bus, araç,vehicles,bus1.jpeg,B,1,NULL
1732392915,cf77a94786e00e77e1cf01729296cc7a,PennController,10,0,ratings,NULL,PennController,9,_Trial_,End,1732392895155,5fcbd87e70a25c99595f012d,6, otobüs,bus, araç,vehicles,bus1.jpeg,B,1,NULL
1732392915,cf77a94786e00e77e1cf01729296cc7a,PennController,12,0,ratings,NULL,PennController,11,_Trial_,Start,1732392895156,5fcbd87e70a25c99595f012d,8, ayakkabı,shoe, giysi,clothes,shoe1.jpeg,B,1,NULL
1732392915,cf77a94786e00e77e1cf01729296cc7a,PennController,12,0,ratings,NULL,PennController,11,_Header_,Start,1732392895156,5fcbd87e70a25c99595f012d,8, ayakkabı,shoe, giysi,clothes,shoe1.jpeg,B,1,NULL
1732392915,cf77a94786e00e77e1cf01729296cc7a,PennController,12,0,ratings,NULL,PennController,11,_Header_,End,1732392895156,5fcbd87e70a25c99595f012d,8, ayakkabı,shoe, giysi,clothes,shoe1.jpeg,B,1,NULL
1732392915,cf77a94786e00e77e1cf01729296cc7a,PennController,12,0,ratings,NULL,Scale,scale,Choice,5,1732392897734,5fcbd87e70a25c99595f012d,8, ayakkabı,shoe, giysi,clothes,shoe1.jpeg,B,1,NULL
1732392915,cf77a94786e00e77e1cf01729296cc7a,PennController,12,0,ratings,NULL,PennController,11,_Trial_,End,1732392898447,5fcbd87e70a25c99595f012d,8, ayakkabı,shoe, giysi,clothes,shoe1.jpeg,B,1,NULL
1732392915,cf77a94786e00e77e1cf01729296cc7a,PennController,16,0,ratings,NULL,PennController,15,_Trial_,Start,1732392898449,5fcbd87e70a25c99595f012d,12, kanepe,couch, mobilya,furniture,couch1.jpeg,B,1,NULL
1732392915,cf77a94786e00e77e1cf01729296cc7a,PennController,16,0,ratings,NULL,PennController,15,_Header_,Start,1732392898449,5fcbd87e70a25c99595f012d,12, kanepe,couch, mobilya,furniture,couch1.jpeg,B,1,NULL
1732392915,cf77a94786e00e77e1cf01729296cc7a,PennController,16,0,ratings,NULL,PennController,15,_Header_,End,1732392898449,5fcbd87e70a25c99595f012d,12, kanepe,couch, mobilya,furniture,couch1.jpeg,B,1,NULL
1732392915,cf77a94786e00e77e1cf01729296cc7a,PennController,16,0,ratings,NULL,Scale,scale,Choice,6,1732392900887,5fcbd87e70a25c99595f012d,12, kanepe,couch, mobilya,furniture,couch1.jpeg,B,1,NULL
1732392915,cf77a94786e00e77e1cf01729296cc7a,PennController,16,0,ratings,NULL,PennController,15,_Trial_,End,1732392901595,5fcbd87e70a25c99595f012d,12, kanepe,couch, mobilya,furniture,couch1.jpeg,B,1,NULL
1732392915,cf77a94786e00e77e1cf01729296cc7a,PennController,14,0,ratings,NULL,PennController,13,_Trial_,Start,1732392901597,5fcbd87e70a25c99595f012d,10, sandalye,chair, mobilya,furniture,chair1.jpeg,B,1,NULL
1732392915,cf77a94786e00e77e1cf01729296cc7a,PennController,14,0,ratings,NULL,PennController,13,_Header_,Start,1732392901597,5fcbd87e70a25c99595f012d,10, sandalye,chair, mobilya,furniture,chair1.jpeg,B,1,NULL
1732392915,cf77a94786e00e77e1cf01729296cc7a,PennController,14,0,ratings,NULL,PennController,13,_Header_,End,1732392901597,5fcbd87e70a25c99595f012d,10, sandalye,chair, mobilya,furniture,chair1.jpeg,B,1,NULL
1732392915,cf77a94786e00e77e1cf01729296cc7a,PennController,14,0,ratings,NULL,Scale,scale,Choice,6,1732392903202,5fcbd87e70a25c99595f012d,10, sandalye,chair, mobilya,furniture,chair1.jpeg,B,1,NULL
1732392915,cf77a94786e00e77e1cf01729296cc7a,PennController,14,0,ratings,NULL,PennController,13,_Trial_,End,1732392903913,5fcbd87e70a25c99595f012d,10, sandalye,chair, mobilya,furniture,chair1.jpeg,B,1,NULL
1732392915,cf77a94786e00e77e1cf01729296cc7a,PennController,6,0,ratings,NULL,PennController,5,_Trial_,Start,1732392903914,5fcbd87e70a25c99595f012d,2, kurabiye,cookie, unlu mamül,baked goods,cookie1.jpeg,B,1,NULL
1732392915,cf77a94786e00e77e1cf01729296cc7a,PennController,6,0,ratings,NULL,PennController,5,_Header_,Start,1732392903914,5fcbd87e70a25c99595f012d,2, kurabiye,cookie, unlu mamül,baked goods,cookie1.jpeg,B,1,NULL
1732392915,cf77a94786e00e77e1cf01729296cc7a,PennController,6,0,ratings,NULL,PennController,5,_Header_,End,1732392903914,5fcbd87e70a25c99595f012d,2, kurabiye,cookie, unlu mamül,baked goods,cookie1.jpeg,B,1,NULL
1732392915,cf77a94786e00e77e1cf01729296cc7a,PennController,6,0,ratings,NULL,Scale,scale,Choice,6,1732392905735,5fcbd87e70a25c99595f012d,2, kurabiye,cookie, unlu mamül,baked goods,cookie1.jpeg,B,1,NULL
1732392915,cf77a94786e00e77e1cf01729296cc7a,PennController,6,0,ratings,NULL,PennController,5,_Trial_,End,1732392906441,5fcbd87e70a25c99595f012d,2, kurabiye,cookie, unlu mamül,baked goods,cookie1.jpeg,B,1,NULL
1732392915,cf77a94786e00e77e1cf01729296cc7a,PennController,17,0,ratings,NULL,PennController,16,_Trial_,Start,1732392906442,5fcbd87e70a25c99595f012d,13, kuş,bird, hayvan,animals,bird2.jpeg,B,2,NULL
1732392915,cf77a94786e00e77e1cf01729296cc7a,PennController,17,0,ratings,NULL,PennController,16,_Header_,Start,1732392906442,5fcbd87e70a25c99595f012d,13, kuş,bird, hayvan,animals,bird2.jpeg,B,2,NULL
1732392915,cf77a94786e00e77e1cf01729296cc7a,PennController,17,0,ratings,NULL,PennController,16,_Header_,End,1732392906443,5fcbd87e70a25c99595f012d,13, kuş,bird, hayvan,animals,bird2.jpeg,B,2,NULL
1732392915,cf77a94786e00e77e1cf01729296cc7a,PennController,17,0,ratings,NULL,Scale,scale,Choice,2,1732392908479,5fcbd87e70a25c99595f012d,13, kuş,bird, hayvan,animals,bird2.jpeg,B,2,NULL
1732392915,cf77a94786e00e77e1cf01729296cc7a,PennController,17,0,ratings,NULL,PennController,16,_Trial_,End,1732392909188,5fcbd87e70a25c99595f012d,13, kuş,bird, hayvan,animals,bird2.jpeg,B,2,NULL
1732392915,cf77a94786e00e77e1cf01729296cc7a,PennController,13,0,ratings,NULL,PennController,12,_Trial_,Start,1732392909189,5fcbd87e70a25c99595f012d,9, şapka,hat, giysi,clothes,hat2.jpeg,B,2,NULL
1732392915,cf77a94786e00e77e1cf01729296cc7a,PennController,13,0,ratings,NULL,PennController,12,_Header_,Start,1732392909189,5fcbd87e70a25c99595f012d,9, şapka,hat, giysi,clothes,hat2.jpeg,B,2,NULL
1732392915,cf77a94786e00e77e1cf01729296cc7a,PennController,13,0,ratings,NULL,PennController,12,_Header_,End,1732392909190,5fcbd87e70a25c99595f012d,9, şapka,hat, giysi,clothes,hat2.jpeg,B,2,NULL
1732392915,cf77a94786e00e77e1cf01729296cc7a,PennController,13,0,ratings,NULL,Scale,scale,Choice,3,1732392911347,5fcbd87e70a25c99595f012d,9, şapka,hat, giysi,clothes,hat2.jpeg,B,2,NULL
1732392915,cf77a94786e00e77e1cf01729296cc7a,PennController,13,0,ratings,NULL,PennController,12,_Trial_,End,1732392912066,5fcbd87e70a25c99595f012d,9, şapka,hat, giysi,clothes,hat2.jpeg,B,2,NULL
1732392915,cf77a94786e00e77e1cf01729296cc7a,PennController,19,0,ratings,NULL,PennController,18,_Trial_,Start,1732392912068,5fcbd87e70a25c99595f012d,15, balık,fish, hayvan,animals,fish2.jpeg,B,2,NULL
1732392915,cf77a94786e00e77e1cf01729296cc7a,PennController,19,0,ratings,NULL,PennController,18,_Header_,Start,1732392912068,5fcbd87e70a25c99595f012d,15, balık,fish, hayvan,animals,fish2.jpeg,B,2,NULL
1732392915,cf77a94786e00e77e1cf01729296cc7a,PennController,19,0,ratings,NULL,PennController,18,_Header_,End,1732392912068,5fcbd87e70a25c99595f012d,15, balık,fish, hayvan,animals,fish2.jpeg,B,2,NULL
1732392915,cf77a94786e00e77e1cf01729296cc7a,PennController,19,0,ratings,NULL,Scale,scale,Choice,3,1732392914562,5fcbd87e70a25c99595f012d,15, balık,fish, hayvan,animals,fish2.jpeg,B,2,NULL
1732392915,cf77a94786e00e77e1cf01729296cc7a,PennController,19,0,ratings,NULL,PennController,18,_Trial_,End,1732392915270,5fcbd87e70a25c99595f012d,15, balık,fish, hayvan,animals,fish2.jpeg,B,2,NULL
#
# Results on Sat, 23 Nov 2024 20:23:21 GMT
# USER AGENT: Mozilla/5.0 (Macintosh; Intel Mac OS X 10_15_7) AppleWebKit/537.36 (KHTML, like Gecko) Chrome/130.0.0.0 Safari/537.36
# Design number was non-random = 8
#
# Columns below this comment are as follows:
# 1. Results reception time.
# 2. MD5 hash of participant's IP address.
# 3. Controller name.
# 4. Order number of item.
# 5. Inner element number.
# 6. Label.
# 7. Latin Square Group.
# 8. PennElementType.
# 9. PennElementName.
# 10. Parameter.
# 11. Value.
# 12. EventTime.
# 13. PROLIFIC_ID.
# 14. Comments.
1732393401,57196558bff6bc0a94b9d62ceee18368,PennController,2,0,consent,NULL,PennController,0,_Trial_,Start,1732393296234,65312507684ab813603caab9,NULL
1732393401,57196558bff6bc0a94b9d62ceee18368,PennController,2,0,consent,NULL,PennController,0,_Header_,Start,1732393296234,65312507684ab813603caab9,NULL
1732393401,57196558bff6bc0a94b9d62ceee18368,PennController,2,0,consent,NULL,PennController,0,_Header_,End,1732393296234,65312507684ab813603caab9,NULL
1732393401,57196558bff6bc0a94b9d62ceee18368,PennController,2,0,consent,NULL,PennController,0,_Trial_,End,1732393301372,65312507684ab813603caab9,NULL
1732393401,57196558bff6bc0a94b9d62ceee18368,PennController,3,0,instructions,NULL,PennController,1,_Trial_,Start,1732393301375,65312507684ab813603caab9,NULL
1732393401,57196558bff6bc0a94b9d62ceee18368,PennController,3,0,instructions,NULL,PennController,1,_Header_,Start,1732393301375,65312507684ab813603caab9,NULL
1732393401,57196558bff6bc0a94b9d62ceee18368,PennController,3,0,instructions,NULL,PennController,1,_Header_,End,1732393301375,65312507684ab813603caab9,NULL
1732393401,57196558bff6bc0a94b9d62ceee18368,PennController,3,0,instructions,NULL,Scale,scale,Choice,7,1732393315721,65312507684ab813603caab9,NULL
1732393401,57196558bff6bc0a94b9d62ceee18368,PennController,3,0,instructions,NULL,PennController,1,_Trial_,End,1732393317821,65312507684ab813603caab9,NULL
1732393401,57196558bff6bc0a94b9d62ceee18368,PennController,4,0,exp-start,NULL,PennController,2,_Trial_,Start,1732393317823,65312507684ab813603caab9,NULL
1732393401,57196558bff6bc0a94b9d62ceee18368,PennController,4,0,exp-start,NULL,PennController,2,_Header_,Start,1732393317823,65312507684ab813603caab9,NULL
1732393401,57196558bff6bc0a94b9d62ceee18368,PennController,4,0,exp-start,NULL,PennController,2,_Header_,End,1732393317823,65312507684ab813603caab9,NULL
1732393401,57196558bff6bc0a94b9d62ceee18368,PennController,4,0,exp-start,NULL,PennController,2,_Trial_,End,1732393320388,65312507684ab813603caab9,NULL
# 14. Item.
# 15. Noun_TR.
# 16. Noun_EN.
# 17. Category_TR.
# 18. Category_EN.
# 19. Image1.
# 20. Group.
# 21. Condition.
# 22. Comments.
1732393401,57196558bff6bc0a94b9d62ceee18368,PennController,7,0,ratings,NULL,PennController,6,_Trial_,Start,1732393320389,65312507684ab813603caab9,3, ekmek,bread, unlu mamül,baked goods,bread1.jpeg,A,1,NULL
1732393401,57196558bff6bc0a94b9d62ceee18368,PennController,7,0,ratings,NULL,PennController,6,_Header_,Start,1732393320389,65312507684ab813603caab9,3, ekmek,bread, unlu mamül,baked goods,bread1.jpeg,A,1,NULL
1732393401,57196558bff6bc0a94b9d62ceee18368,PennController,7,0,ratings,NULL,PennController,6,_Header_,End,1732393320389,65312507684ab813603caab9,3, ekmek,bread, unlu mamül,baked goods,bread1.jpeg,A,1,NULL
1732393401,57196558bff6bc0a94b9d62ceee18368,PennController,7,0,ratings,NULL,Scale,scale,Choice,7,1732393324435,65312507684ab813603caab9,3, ekmek,bread, unlu mamül,baked goods,bread1.jpeg,A,1,NULL
1732393401,57196558bff6bc0a94b9d62ceee18368,PennController,7,0,ratings,NULL,PennController,6,_Trial_,End,1732393325143,65312507684ab813603caab9,3, ekmek,bread, unlu mamül,baked goods,bread1.jpeg,A,1,NULL
1732393401,57196558bff6bc0a94b9d62ceee18368,PennController,10,0,ratings,NULL,PennController,9,_Trial_,Start,1732393325144,65312507684ab813603caab9,6, otobüs,bus, araç,vehicles,bus2.jpeg,A,2,NULL
1732393401,57196558bff6bc0a94b9d62ceee18368,PennController,10,0,ratings,NULL,PennController,9,_Header_,Start,1732393325144,65312507684ab813603caab9,6, otobüs,bus, araç,vehicles,bus2.jpeg,A,2,NULL
1732393401,57196558bff6bc0a94b9d62ceee18368,PennController,10,0,ratings,NULL,PennController,9,_Header_,End,1732393325144,65312507684ab813603caab9,6, otobüs,bus, araç,vehicles,bus2.jpeg,A,2,NULL
1732393401,57196558bff6bc0a94b9d62ceee18368,PennController,10,0,ratings,NULL,Scale,scale,Choice,7,1732393331501,65312507684ab813603caab9,6, otobüs,bus, araç,vehicles,bus2.jpeg,A,2,NULL
1732393401,57196558bff6bc0a94b9d62ceee18368,PennController,10,0,ratings,NULL,PennController,9,_Trial_,End,1732393332209,65312507684ab813603caab9,6, otobüs,bus, araç,vehicles,bus2.jpeg,A,2,NULL
1732393401,57196558bff6bc0a94b9d62ceee18368,PennController,5,0,ratings,NULL,PennController,4,_Trial_,Start,1732393332212,65312507684ab813603caab9,1, kek,cake, unlu mamül,baked goods,cake1.jpeg,A,1,NULL
1732393401,57196558bff6bc0a94b9d62ceee18368,PennController,5,0,ratings,NULL,PennController,4,_Header_,Start,1732393332212,65312507684ab813603caab9,1, kek,cake, unlu mamül,baked goods,cake1.jpeg,A,1,NULL
1732393401,57196558bff6bc0a94b9d62ceee18368,PennController,5,0,ratings,NULL,PennController,4,_Header_,End,1732393332212,65312507684ab813603caab9,1, kek,cake, unlu mamül,baked goods,cake1.jpeg,A,1,NULL
1732393401,57196558bff6bc0a94b9d62ceee18368,PennController,5,0,ratings,NULL,Scale,scale,Choice,7,1732393341951,65312507684ab813603caab9,1, kek,cake, unlu mamül,baked goods,cake1.jpeg,A,1,NULL
1732393401,57196558bff6bc0a94b9d62ceee18368,PennController,5,0,ratings,NULL,PennController,4,_Trial_,End,1732393342663,65312507684ab813603caab9,1, kek,cake, unlu mamül,baked goods,cake1.jpeg,A,1,NULL
1732393401,57196558bff6bc0a94b9d62ceee18368,PennController,18,0,ratings,NULL,PennController,17,_Trial_,Start,1732393342664,65312507684ab813603caab9,14, köpek,dog, hayvan,animals,dog2.jpeg,A,2,NULL
1732393401,57196558bff6bc0a94b9d62ceee18368,PennController,18,0,ratings,NULL,PennController,17,_Header_,Start,1732393342664,65312507684ab813603caab9,14, köpek,dog, hayvan,animals,dog2.jpeg,A,2,NULL
1732393401,57196558bff6bc0a94b9d62ceee18368,PennController,18,0,ratings,NULL,PennController,17,_Header_,End,1732393342664,65312507684ab813603caab9,14, köpek,dog, hayvan,animals,dog2.jpeg,A,2,NULL
1732393401,57196558bff6bc0a94b9d62ceee18368,PennController,18,0,ratings,NULL,Scale,scale,Choice,7,1732393346084,65312507684ab813603caab9,14, köpek,dog, hayvan,animals,dog2.jpeg,A,2,NULL
1732393401,57196558bff6bc0a94b9d62ceee18368,PennController,18,0,ratings,NULL,PennController,17,_Trial_,End,1732393346793,65312507684ab813603caab9,14, köpek,dog, hayvan,animals,dog2.jpeg,A,2,NULL
1732393401,57196558bff6bc0a94b9d62ceee18368,PennController,19,0,ratings,NULL,PennController,18,_Trial_,Start,1732393346795,65312507684ab813603caab9,15, balık,fish, hayvan,animals,fish1.jpeg,A,1,NULL
1732393401,57196558bff6bc0a94b9d62ceee18368,PennController,19,0,ratings,NULL,PennController,18,_Header_,Start,1732393346795,65312507684ab813603caab9,15, balık,fish, hayvan,animals,fish1.jpeg,A,1,NULL
1732393401,57196558bff6bc0a94b9d62ceee18368,PennController,19,0,ratings,NULL,PennController,18,_Header_,End,1732393346795,65312507684ab813603caab9,15, balık,fish, hayvan,animals,fish1.jpeg,A,1,NULL
1732393401,57196558bff6bc0a94b9d62ceee18368,PennController,19,0,ratings,NULL,Scale,scale,Choice,7,1732393353251,65312507684ab813603caab9,15, balık,fish, hayvan,animals,fish1.jpeg,A,1,NULL
